time_s,orientation_x,orientation_y,orientation_z,orientation_w,orientation_covariance_0,orientation_covariance_1,orientation_covariance_2,orientation_covariance_3,orientation_covariance_4,orientation_covariance_5,orientation_covariance_6,orientation_covariance_7,orientation_covariance_8,angular_velocity_x,angular_velocity_y,angular_velocity_z,angular_velocity_covariance_0,angular_velocity_covariance_1,angular_velocity_covariance_2,angular_velocity_covariance_3,angular_velocity_covariance_4,angular_velocity_covariance_5,angular_velocity_covariance_6,angular_velocity_covariance_7,angular_velocity_covariance_8,linear_acceleration_x,linear_acceleration_y,linear_acceleration_z,linear_acceleration_covariance_0,linear_acceleration_covariance_1,linear_acceleration_covariance_2,linear_acceleration_covariance_3,linear_acceleration_covariance_4,linear_acceleration_covariance_5,linear_acceleration_covariance_6,linear_acceleration_covariance_7,linear_acceleration_covariance_8,x,y,z,w,rot_x,rot_y,rot_z
1.53186475,-0.95094818,0.20244271,0.22686850,0.05696696,0.24579862,0.25887144,-0.13802826,0.25887144,0.37442988,-0.37453125,-0.13802826,-0.37453121,0.78368781,-0.00283325,-0.00394939,0.00075588,0.69494526,0.00000000,0.00000000,0.00000000,0.61448867,0.00000000,0.00000000,-0.00000000,0.64256796,-4.23470449,-0.32985574,-8.57691765,10291009.21005011,0.00000000,0.00000000,0.00000000,7348085.28795838,0.00000000,0.00000000,-0.00000000,9135388.76920938,0.96155162,0.64346927,1.56909656,0.94896896,0.05068476,0.29397100,-0.10232312
1.53680479,-0.95096833,0.20242195,0.22679609,0.05699259,0.24576373,0.25880616,-0.13798604,0.25880614,0.37429756,-0.37443781,-0.13798601,-0.37443778,0.78373934,-0.00438789,-0.00606506,-0.00683052,0.69494526,0.00000000,0.00000000,0.00000000,0.61448867,0.00000000,0.00000000,-0.00000000,0.64256796,-4.24902105,-0.33239287,-8.62704849,10291009.21005011,0.00000000,0.00000000,0.00000000,7348085.28795838,0.00000000,0.00000000,-0.00000000,9135388.76920938,0.96151470,0.64348925,1.56915979,0.94898016,0.05068251,0.29392992,-0.10233840
1.54421496,-0.95100510,0.20235838,0.22668727,0.05703728,0.24567071,0.25866211,-0.13791627,0.25866211,0.37403911,-0.37426192,-0.13791625,-0.37426185,0.78377286,-0.00757821,-0.00346637,-0.01279490,0.69494526,0.00000000,0.00000000,0.00000000,0.61448867,0.00000000,0.00000000,-0.00000000,0.64256796,-4.24414301,-0.33235237,-8.67956638,10291009.21005011,0.00000000,0.00000000,0.00000000,7348085.28795838,0.00000000,0.00000000,-0.00000000,9135388.76920938,0.96148120,0.64350942,1.56921654,0.94898945,0.05067837,0.29389585,-0.10235214
1.54915499,-0.95103472,0.20229121,0.22661363,0.05707436,0.24558072,0.25853382,-0.13786245,0.25853380,0.37381996,-0.37411027,-0.13786246,-0.37411034,0.78376053,-0.00701793,-0.00345538,-0.02307599,0.69494526,0.00000000,0.00000000,0.00000000,0.61448867,0.00000000,0.00000000,-0.00000000,0.64256796,-4.24652910,-0.31805792,-8.67955112,10291009.21005011,0.00000000,0.00000000,0.00000000,7348085.28795838,0.00000000,0.00000000,-0.00000000,9135388.76920938,0.96144882,0.64353127,1.56927047,0.94899752,0.05067226,0.29386700,-0.10236316
1.55409477,-0.95106560,0.20221616,0.22653912,0.05712160,0.24549075,0.25839445,-0.13780093,0.25839445,0.37358818,-0.37395357,-0.13780093,-0.37395357,0.78372950,-0.00489725,-0.00132811,-0.02576621,0.69494526,0.00000000,0.00000000,0.00000000,0.61448867,0.00000000,0.00000000,-0.00000000,0.64256796,-4.26567030,-0.29438788,-8.65087223,10291009.21005011,0.00000000,0.00000000,0.00000000,7348085.28795838,0.00000000,0.00000000,-0.00000000,9135388.76920938,0.96141918,0.64355378,1.56931857,0.94900400,0.05066464,0.29384537,-0.10236895
1.56891487,-0.95116353,0.20193227,0.22633584,0.05730080,0.24518937,0.25791117,-0.13759621,0.25791120,0.37280448,-0.37343147,-0.13759619,-0.37343150,0.78351985,-0.00324151,-0.00603814,-0.03713632,0.69494526,0.00000000,0.00000000,0.00000000,0.61448867,0.00000000,0.00000000,-0.00000000,0.64256796,-4.34443760,-0.25225461,-8.62690926,10291009.21005011,0.00000000,0.00000000,0.00000000,7348085.28795838,0.00000000,0.00000000,-0.00000000,9135388.76920938,0.96133387,0.64363831,1.56944981,0.94901854,0.05063513,0.29381281,-0.10234219
1.58373496,-0.95126617,0.20162772,0.22612701,0.05749369,0.24487241,0.25739517,-0.13737954,0.25739520,0.37197787,-0.37288898,-0.13737952,-0.37288901,0.78327667,-0.00485414,-0.00395274,-0.03388839,0.69494526,0.00000000,0.00000000,0.00000000,0.61448867,0.00000000,0.00000000,-0.00000000,0.64256796,-4.40170336,-0.18125901,-8.69843197,10291009.21005011,0.00000000,0.00000000,0.00000000,7348085.28795838,0.00000000,0.00000000,-0.00000000,9135388.76920938,0.96126430,0.64374856,1.56955219,0.94903008,0.05061687,0.29381894,-0.10222654
1.58867499,-0.95129812,0.20153812,0.22606073,0.05753955,0.24476429,0.25723649,-0.13732258,0.25723647,0.37172163,-0.37272205,-0.13732260,-0.37272202,0.78322514,-0.01016721,-0.00400970,-0.02848923,0.69494526,0.00000000,0.00000000,0.00000000,0.61448867,0.00000000,0.00000000,-0.00000000,0.64256796,-4.40888834,-0.14791963,-8.71033669,10291009.21005011,0.00000000,0.00000000,0.00000000,7348085.28795838,0.00000000,0.00000000,-0.00000000,9135388.76920938,0.96125912,0.64375946,1.56955969,0.94903102,0.05061604,0.29382101,-0.10221235
1.59361477,-0.95132864,0.20146650,0.22598760,0.05757295,0.24466419,0.25709713,-0.13727233,0.25709715,0.37149234,-0.37256954,-0.13727234,-0.37256954,0.78320969,-0.01020577,-0.00191092,-0.01982494,0.69494526,0.00000000,0.00000000,0.00000000,0.61448867,0.00000000,0.00000000,-0.00000000,0.64256796,-4.40650225,-0.12164208,-8.71747398,10291009.21005011,0.00000000,0.00000000,0.00000000,7348085.28795838,0.00000000,0.00000000,-0.00000000,9135388.76920938,0.96124105,0.64380204,1.56958569,0.94903430,0.05061362,0.29383089,-0.10215458
1.59855480,-0.95135593,0.20141564,0.22591534,0.05758356,0.24456800,0.25698133,-0.13723992,0.25698134,0.37129166,-0.37243413,-0.13723988,-0.37243410,0.78324010,-0.01552317,-0.00302138,-0.01172469,0.69494526,0.00000000,0.00000000,0.00000000,0.61448867,0.00000000,0.00000000,-0.00000000,0.64256796,-4.41604662,-0.10264972,-8.71745014,10291009.21005011,0.00000000,0.00000000,0.00000000,7348085.28795838,0.00000000,0.00000000,-0.00000000,9135388.76920938,0.96122970,0.64383323,1.56960180,0.94903635,0.05061215,0.29383975,-0.10211085
1.60349483,-0.95137906,0.20138268,0.22585011,0.05757320,0.24447673,0.25689153,-0.13722633,0.25689153,0.37113114,-0.37232317,-0.13722632,-0.37232311,0.78330347,-0.01924730,-0.00464140,-0.00362129,0.69494526,0.00000000,0.00000000,0.00000000,0.61448867,0.00000000,0.00000000,-0.00000000,0.64256796,-4.44229364,-0.08860611,-8.71264648,10291009.21005011,0.00000000,0.00000000,0.00000000,7348085.28795838,0.00000000,0.00000000,-0.00000000,9135388.76920938,0.96121673,0.64387422,1.56961961,0.94903850,0.05060899,0.29385331,-0.10205340
1.60843487,-0.95139724,0.20137514,0.22579002,0.05753411,0.24439116,0.25683399,-0.13723671,0.25683397,0.37101717,-0.37224037,-0.13723670,-0.37224041,0.78341699,-0.02404061,-0.00680022,0.00772271,0.69494526,0.00000000,0.00000000,0.00000000,0.61448867,0.00000000,0.00000000,-0.00000000,0.64256796,-4.45896912,-0.07446458,-8.71978092,10291009.21005011,0.00000000,0.00000000,0.00000000,7348085.28795838,0.00000000,0.00000000,-0.00000000,9135388.76920938,0.96120550,0.64391535,1.56963398,0.94903997,0.05060276,0.29386902,-0.10199756
1.61337490,-0.95141399,0.20138834,0.22572514,0.05746595,0.24429956,0.25680000,-0.13726671,0.25680003,0.37093537,-0.37217336,-0.13726675,-0.37217340,0.78358073,-0.02885754,-0.00211957,0.01367420,0.69494526,0.00000000,0.00000000,0.00000000,0.61448867,0.00000000,0.00000000,-0.00000000,0.64256796,-4.44465303,-0.07908726,-8.71979427,10291009.21005011,0.00000000,0.00000000,0.00000000,7348085.28795838,0.00000000,0.00000000,-0.00000000,9135388.76920938,0.96119583,0.64395581,1.56964502,0.94904068,0.05059218,0.29388645,-0.10194590
1.61831493,-0.95142835,0.20142193,0.22565912,0.05736941,0.24420374,0.25678797,-0.13731755,0.25678797,0.37088128,-0.37211740,-0.13731755,-0.37211733,0.78379509,-0.03366931,-0.00007029,0.02340742,0.69494526,0.00000000,0.00000000,0.00000000,0.61448867,0.00000000,0.00000000,-0.00000000,0.64256796,-4.41601992,-0.09549238,-8.69117832,10291009.21005011,0.00000000,0.00000000,0.00000000,7348085.28795838,0.00000000,0.00000000,-0.00000000,9135388.76920938,0.96118686,0.64399811,1.56965352,0.94904061,0.05057522,0.29390666,-0.10189670
1.63313477,-0.95145369,0.20157379,0.22549142,0.05707463,0.24400000,0.25685724,-0.13748657,0.25685721,0.37088426,-0.37204519,-0.13748657,-0.37204519,0.78447829,-0.02991741,-0.00476405,0.02504297,0.69494526,0.00000000,0.00000000,0.00000000,0.61448867,0.00000000,0.00000000,-0.00000000,0.64256796,-4.34221029,-0.18777721,-8.66506481,10291009.21005011,0.00000000,0.00000000,0.00000000,7348085.28795838,0.00000000,0.00000000,-0.00000000,9135388.76920938,0.96116208,0.64415629,1.56966317,0.94903418,0.05045617,0.29399302,-0.10176646
1.64795487,-0.95149815,0.20163001,0.22530727,0.05686066,0.24374405,0.25680512,-0.13758415,0.25680507,0.37071353,-0.37185607,-0.13758417,-0.37185614,0.78499028,-0.02139265,-0.00572072,0.00719387,0.69494526,0.00000000,0.00000000,0.00000000,0.61448867,0.00000000,0.00000000,-0.00000000,0.64256796,-4.26810980,-0.22997026,-8.67468929,10291009.21005011,0.00000000,0.00000000,0.00000000,7348085.28795838,0.00000000,0.00000000,-0.00000000,9135388.76920938,0.96114683,0.64446985,1.56962101,0.94899609,0.05001241,0.29420878,-0.10171709
1.65289490,-0.95151860,0.20161626,0.22524232,0.05682553,0.24365224,0.25674785,-0.13758783,0.25674783,0.37059910,-0.37175827,-0.13758784,-0.37175827,0.78509292,-0.01711917,-0.00567110,-0.00415913,0.69494526,0.00000000,0.00000000,0.00000000,0.61448867,0.00000000,0.00000000,-0.00000000,0.64256796,-4.29435682,-0.22785959,-8.68422031,10291009.21005011,0.00000000,0.00000000,0.00000000,7348085.28795838,0.00000000,0.00000000,-0.00000000,9135388.76920938,0.96114685,0.64447097,1.56962079,0.94899589,0.05001053,0.29420975,-0.10171712
1.66030482,-0.95155334,0.20157187,0.22514343,0.05679353,0.24350359,0.25662759,-0.13757759,0.25662759,0.37037740,-0.37158391,-0.13757759,-0.37158384,0.78520284,-0.01443417,-0.00721712,-0.01173002,0.69494526,0.00000000,0.00000000,0.00000000,0.61448867,0.00000000,0.00000000,-0.00000000,0.64256796,-4.33017445,-0.21868707,-8.72477913,10291009.21005011,0.00000000,0.00000000,0.00000000,7348085.28795838,0.00000000,0.00000000,-0.00000000,9135388.76920938,0.96114685,0.64447150,1.56962069,0.94899579,0.05000964,0.29421021,-0.10171714
1.66524485,-0.95157784,0.20152715,0.22508216,0.05678383,0.24339869,0.25652960,-0.13756433,0.25652962,0.37020732,-0.37145837,-0.13756436,-0.37145844,0.78524322,-0.01495779,-0.00722138,-0.01389627,0.69494526,0.00000000,0.00000000,0.00000000,0.61448867,0.00000000,0.00000000,-0.00000000,0.64256796,-4.35642099,-0.19032395,-8.75338554,10291009.21005011,0.00000000,0.00000000,0.00000000,7348085.28795838,0.00000000,0.00000000,-0.00000000,9135388.76920938,0.96114686,0.64447194,1.56962060,0.94899571,0.05000889,0.29421060,-0.10171715
1.67018488,-0.95160478,0.20147885,0.22501273,0.05677936,0.24329067,0.25642349,-0.13754360,0.25642347,0.37002229,-0.37131953,-0.13754360,-0.37131957,0.78528049,-0.01070526,-0.00770229,-0.01604815,0.69494526,0.00000000,0.00000000,0.00000000,0.61448867,0.00000000,0.00000000,-0.00000000,0.64256796,-4.38985252,-0.15726048,-8.78437424,10291009.21005011,0.00000000,0.00000000,0.00000000,7348085.28795838,0.00000000,0.00000000,-0.00000000,9135388.76920938,0.96114687,0.64447242,1.56962051,0.94899562,0.05000810,0.29421101,-0.10171716
1.67512491,-0.95163214,0.20143810,0.22493704,0.05676519,0.24317937,0.25631986,-0.13752830,0.25631986,0.36983826,-0.37118406,-0.13752828,-0.37118409,0.78533811,-0.01233588,-0.00246141,-0.01333350,0.69494526,0.00000000,0.00000000,0.00000000,0.61448867,0.00000000,0.00000000,-0.00000000,0.64256796,-4.41848516,-0.13608219,-8.78911114,10291009.21005011,0.00000000,0.00000000,0.00000000,7348085.28795838,0.00000000,0.00000000,-0.00000000,9135388.76920938,0.96114784,0.64451748,1.56961171,0.94898692,0.04993148,0.29425175,-0.10171819
1.68006495,-0.95165998,0.20139655,0.22486167,0.05674497,0.24306008,0.25621413,-0.13751751,0.25621413,0.36964727,-0.37103823,-0.13751751,-0.37103819,0.78540266,-0.01180784,-0.00456153,-0.01117923,0.69494526,0.00000000,0.00000000,0.00000000,0.61448867,0.00000000,0.00000000,-0.00000000,0.64256796,-4.45896912,-0.12219631,-8.76041412,10291009.21005011,0.00000000,0.00000000,0.00000000,7348085.28795838,0.00000000,0.00000000,-0.00000000,9135388.76920938,0.96114948,0.64456584,1.56960213,0.94897683,0.04984865,0.29429842,-0.10171792
1.68500498,-0.95168364,0.20136851,0.22479387,0.05671582,0.24295351,0.25612947,-0.13751693,0.25612946,0.36948870,-0.37091612,-0.13751690,-0.37091608,0.78548453,-0.01551117,-0.00670420,-0.00903022,0.69494526,0.00000000,0.00000000,0.00000000,0.61448867,0.00000000,0.00000000,-0.00000000,0.64256796,-4.49476051,-0.11779939,-8.72457600,10291009.21005011,0.00000000,0.00000000,0.00000000,7348085.28795838,0.00000000,0.00000000,-0.00000000,9135388.76920938,0.96115170,0.64461659,1.56959203,0.94896588,0.04976264,0.29434916,-0.10171533
1.69982482,-0.95174104,0.20132618,0.22463153,0.05654583,0.24261921,0.25593836,-0.13759765,0.25593835,0.36911589,-0.37061777,-0.13759765,-0.37061784,0.78580660,-0.01607387,-0.00776812,0.00232614,0.69494526,0.00000000,0.00000000,0.00000000,0.61448867,0.00000000,0.00000000,-0.00000000,0.64256796,-4.49470758,-0.11064446,-8.73172665,10291009.21005011,0.00000000,0.00000000,0.00000000,7348085.28795838,0.00000000,0.00000000,-0.00000000,9135388.76920938,0.96116112,0.64479935,1.56955642,0.94893375,0.04948249,0.29451003,-0.10168608
1.71464491,-0.95169789,0.20136033,0.22486770,0.05621096,0.24240320,0.25608709,-0.13797135,0.25608705,0.36942203,-0.37080807,-0.13797136,-0.37080803,0.78601854,-0.02138128,-0.00466659,0.00504068,0.69494526,0.00000000,0.00000000,0.00000000,0.61448867,0.00000000,0.00000000,-0.00000000,0.64256796,-4.49489307,-0.12733364,-8.72459698,10291009.21005011,0.00000000,0.00000000,0.00000000,7348085.28795838,0.00000000,0.00000000,-0.00000000,9135388.76920938,0.96116766,0.64493821,1.56953284,0.94892393,0.04931516,0.29458258,-0.10164888
1.71958495,-0.95167512,0.20136599,0.22497450,0.05614863,0.24239370,0.25616047,-0.13806967,0.25616049,0.36959356,-0.37094455,-0.13806967,-0.37094451,0.78601300,-0.01820629,-0.00305551,0.00343004,0.69494526,0.00000000,0.00000000,0.00000000,0.61448867,0.00000000,0.00000000,-0.00000000,0.64256796,-4.49250698,-0.12253539,-8.71265602,10291009.21005011,0.00000000,0.00000000,0.00000000,7348085.28795838,0.00000000,0.00000000,-0.00000000,9135388.76920938,0.96116835,0.64495414,1.56953054,0.94892349,0.04929818,0.29458836,-0.10164450
1.72452498,-0.95165491,0.20136277,0.22507633,0.05609446,0.24237846,0.25621756,-0.13816009,0.25621754,0.36973724,-0.37106579,-0.13816009,-0.37106579,0.78599416,-0.01820894,-0.00252909,0.00126214,0.69494526,0.00000000,0.00000000,0.00000000,0.61448867,0.00000000,0.00000000,-0.00000000,0.64256796,-4.48290968,-0.11528014,-8.73413849,10291009.21005011,0.00000000,0.00000000,0.00000000,7348085.28795838,0.00000000,0.00000000,-0.00000000,9135388.76920938,0.96117030,0.64500184,1.56952434,0.94892267,0.04924924,0.29460357,-0.10163178
1.73193490,-0.95162600,0.20135571,0.22522654,0.05600780,0.24234499,0.25629608,-0.13829901,0.25629605,0.36993987,-0.37123798,-0.13829904,-0.37123798,0.78596992,-0.01927023,-0.00253998,0.00071573,0.69494526,0.00000000,0.00000000,0.00000000,0.61448867,0.00000000,0.00000000,-0.00000000,0.64256796,-4.48288345,-0.11289597,-8.74845886,10291009.21005011,0.00000000,0.00000000,0.00000000,7348085.28795838,0.00000000,0.00000000,-0.00000000,9135388.76920938,0.96117186,0.64504619,1.56951967,0.94892219,0.04920525,0.29461628,-0.10162072
1.73687493,-0.95160651,0.20135175,0.22532642,0.05595110,0.24232501,0.25635097,-0.13839073,0.25635101,0.37007999,-0.37135493,-0.13839070,-0.37135493,0.78595233,-0.01715197,-0.00146563,-0.00089922,0.69494526,0.00000000,0.00000000,0.00000000,0.61448867,0.00000000,0.00000000,-0.00000000,0.64256796,-4.48288345,-0.11050938,-8.73890591,10291009.21005011,0.00000000,0.00000000,0.00000000,7348085.28795838,0.00000000,0.00000000,-0.00000000,9135388.76920938,0.96117311,0.64509359,1.56951610,0.94892136,0.04915828,0.29463042,-0.10161015
1.74181496,-0.95158648,0.20135175,0.22542493,0.05589487,0.24231084,0.25640952,-0.13848219,0.25640954,0.37022419,-0.37147420,-0.13848221,-0.37147416,0.78594090,-0.01292393,-0.00247683,0.00343514,0.69494526,0.00000000,0.00000000,0.00000000,0.61448867,0.00000000,0.00000000,-0.00000000,0.64256796,-4.49476051,-0.10109328,-8.73410988,10291009.21005011,0.00000000,0.00000000,0.00000000,7348085.28795838,0.00000000,0.00000000,-0.00000000,9135388.76920938,0.96117375,0.64513737,1.56951438,0.94891969,0.04911334,0.29464612,-0.10160199
1.74675499,-0.95156431,0.20136140,0.22552516,0.05583299,0.24230492,0.25647966,-0.13857947,0.25647968,0.37038294,-0.37160739,-0.13857946,-0.37160739,0.78594332,-0.01717519,-0.00199591,0.00613045,0.69494526,0.00000000,0.00000000,0.00000000,0.61448867,0.00000000,0.00000000,-0.00000000,0.64256796,-4.50191879,-0.09400877,-8.75797367,10291009.21005011,0.00000000,0.00000000,0.00000000,7348085.28795838,0.00000000,0.00000000,-0.00000000,9135388.76920938,0.96117372,0.64517827,1.56951434,0.94891714,0.04906941,0.29466369,-0.10159608
1.75169477,-0.95154321,0.20137680,0.22562028,0.05575287,0.24228355,0.25655223,-0.13868765,0.25655223,0.37054401,-0.37173722,-0.13868764,-0.37173718,0.78597262,-0.02038723,0.00112460,0.00937429,0.69494526,0.00000000,0.00000000,0.00000000,0.61448867,0.00000000,0.00000000,-0.00000000,0.64256796,-4.50905037,-0.09408642,-8.79139328,10291009.21005011,0.00000000,0.00000000,0.00000000,7348085.28795838,0.00000000,0.00000000,-0.00000000,9135388.76920938,0.96117285,0.64521840,1.56951594,0.94891413,0.04902526,0.29468212,-0.10159204
1.76651487,-0.95147377,0.20145293,0.22591336,0.05547528,0.24222362,0.25681202,-0.13904281,0.25681202,0.37108657,-0.37215369,-0.13904280,-0.37215372,0.78612424,-0.02517009,0.00212516,0.01641009,0.69494526,0.00000000,0.00000000,0.00000000,0.61448867,0.00000000,0.00000000,-0.00000000,0.64256796,-4.50202465,-0.08922593,-8.81050491,10291009.21005011,0.00000000,0.00000000,0.00000000,7348085.28795838,0.00000000,0.00000000,-0.00000000,9135388.76920938,0.96115815,0.64536451,1.56953844,0.94890764,0.04887182,0.29472758,-0.10159476
1.78133496,-0.95141286,0.20154603,0.22617188,0.05512769,0.24209043,0.25706690,-0.13943320,0.25706690,0.37160112,-0.37252009,-0.13943317,-0.37252012,0.78638729,-0.02677013,0.00526579,0.01316639,0.69494526,0.00000000,0.00000000,0.00000000,0.61448867,0.00000000,0.00000000,-0.00000000,0.64256796,-4.44953108,-0.12447291,-8.75565815,10291009.21005011,0.00000000,0.00000000,0.00000000,7348085.28795838,0.00000000,0.00000000,-0.00000000,9135388.76920938,0.96113330,0.64546213,1.56957292,0.94891491,0.04878043,0.29471179,-0.10161660
1.78627499,-0.95139450,0.20156799,0.22625235,0.05503408,0.24205630,0.25714215,-0.13954427,0.25714219,0.37175814,-0.37263201,-0.13954426,-0.37263201,0.78644887,-0.02147163,0.00689947,0.00939475,0.69494526,0.00000000,0.00000000,0.00000000,0.61448867,0.00000000,0.00000000,-0.00000000,0.64256796,-4.40894127,-0.11450258,-8.71269608,10291009.21005011,0.00000000,0.00000000,0.00000000,7348085.28795838,0.00000000,0.00000000,-0.00000000,9135388.76920938,0.96113129,0.64546801,1.56957567,0.94891580,0.04877507,0.29470913,-0.10161858
1.79121477,-0.95137942,0.20157856,0.22632942,0.05493869,0.24200233,0.25719732,-0.13965545,0.25719729,0.37188201,-0.37272375,-0.13965547,-0.37272372,0.78649998,-0.02199389,0.00847484,0.00344413,0.69494526,0.00000000,0.00000000,0.00000000,0.61448867,0.00000000,0.00000000,-0.00000000,0.64256796,-4.38746643,-0.09518413,-8.69120407,10291009.21005011,0.00000000,0.00000000,0.00000000,7348085.28795838,0.00000000,0.00000000,-0.00000000,9135388.76920938,0.96105222,0.64561747,1.56968967,0.94895513,0.04861067,0.29458361,-0.10169401
1.79615480,-0.95136642,0.20158452,0.22640420,0.05483362,0.24192988,0.25724115,-0.13977367,0.25724111,0.37198500,-0.37279672,-0.13977367,-0.37279672,0.78655387,-0.01876832,0.00219825,0.00127252,0.69494526,0.00000000,0.00000000,0.00000000,0.61448867,0.00000000,0.00000000,-0.00000000,0.64256796,-4.37553596,-0.08312578,-8.70552444,10291009.21005011,0.00000000,0.00000000,0.00000000,7348085.28795838,0.00000000,0.00000000,-0.00000000,9135388.76920938,0.96104625,0.64562500,1.56969898,0.94895780,0.04859851,0.29457528,-0.10169898
1.80109483,-0.95135754,0.20159733,0.22645830,0.05471747,0.24184497,0.25728189,-0.13989260,0.25728189,0.37207819,-0.37285822,-0.13989259,-0.37285819,0.78663193,-0.01346177,0.00120087,0.00128483,0.69494526,0.00000000,0.00000000,0.00000000,0.61448867,0.00000000,0.00000000,-0.00000000,0.64256796,-4.37076378,-0.06875610,-8.73655033,10291009.21005011,0.00000000,0.00000000,0.00000000,7348085.28795838,0.00000000,0.00000000,-0.00000000,9135388.76920938,0.96104596,0.64562536,1.56969944,0.94895793,0.04859791,0.29457488,-0.10169922
1.80603487,-0.95135778,0.20160717,0.22648017,0.05458605,0.24172263,0.25729701,-0.14000894,0.25729695,0.37211369,-0.37286588,-0.14000891,-0.37286588,0.78674697,-0.01504708,0.00171189,-0.00142428,0.69494526,0.00000000,0.00000000,0.00000000,0.61448867,0.00000000,0.00000000,-0.00000000,0.64256796,-4.37792206,-0.05212525,-8.76518059,10291009.21005011,0.00000000,0.00000000,0.00000000,7348085.28795838,0.00000000,0.00000000,-0.00000000,9135388.76920938,0.96104579,0.64562555,1.56969970,0.94895800,0.04859757,0.29457466,-0.10169935
1.81097490,-0.95136172,0.20162302,0.22647867,0.05446498,0.24160929,0.25730760,-0.14010852,0.25730759,0.37212876,-0.37285144,-0.14010853,-0.37285147,0.78688044,-0.00976983,0.00492085,-0.00031904,0.69494526,0.00000000,0.00000000,0.00000000,0.61448867,0.00000000,0.00000000,-0.00000000,0.64256796,-4.39462471,-0.04275447,-8.77948570,10291009.21005011,0.00000000,0.00000000,0.00000000,7348085.28795838,0.00000000,0.00000000,-0.00000000,9135388.76920938,0.96104565,0.64562573,1.56969992,0.94895806,0.04859728,0.29457447,-0.10169946
1.81591493,-0.95136756,0.20163755,0.22647238,0.05433542,0.24148176,0.25730786,-0.14021240,0.25730790,0.37211792,-0.37281670,-0.14021241,-0.37281674,0.78702928,-0.01295067,0.00383560,0.00020608,0.69494526,0.00000000,0.00000000,0.00000000,0.61448867,0.00000000,0.00000000,-0.00000000,0.64256796,-4.41843271,-0.02869062,-8.79139137,10291009.21005011,0.00000000,0.00000000,0.00000000,7348085.28795838,0.00000000,0.00000000,-0.00000000,9135388.76920938,0.96104516,0.64562634,1.56970070,0.94895828,0.04859626,0.29457379,-0.10169987
1.83073477,-0.95137715,0.20169474,0.22647409,0.05394679,0.24112968,0.25734355,-0.14053345,0.25734357,0.37215369,-0.37276468,-0.14053344,-0.37276465,0.78747131,-0.01404060,0.00803050,0.00346524,0.69494526,0.00000000,0.00000000,0.00000000,0.61448867,0.00000000,0.00000000,-0.00000000,0.64256796,-4.43996000,-0.01697859,-8.79614639,10291009.21005011,0.00000000,0.00000000,0.00000000,7348085.28795838,0.00000000,0.00000000,-0.00000000,9135388.76920938,0.96096887,0.64569525,1.56982647,0.94898600,0.04843806,0.29449434,-0.10174680
1.85296479,-0.95138276,0.20186223,0.22645080,0.05331553,0.24065131,0.25748429,-0.14104320,0.25748427,0.37230846,-0.37273549,-0.14104319,-0.37273546,0.78830730,-0.01034372,0.00859238,0.00780876,0.69494526,0.00000000,0.00000000,0.00000000,0.61448867,0.00000000,0.00000000,-0.00000000,0.64256796,-4.40658140,-0.02378478,-8.60995007,10291009.21005011,0.00000000,0.00000000,0.00000000,7348085.28795838,0.00000000,0.00000000,-0.00000000,9135388.76920938,0.96089828,0.64572606,1.56994315,0.94900524,0.04830087,0.29444608,-0.10177222
1.85790482,-0.95137823,0.20189407,0.22646853,0.05319997,0.24057756,0.25752805,-0.14114834,0.25752808,0.37237284,-0.37275804,-0.14114836,-0.37275804,0.78844590,-0.00769795,0.00914568,0.00618952,0.69494526,0.00000000,0.00000000,0.00000000,0.61448867,0.00000000,0.00000000,-0.00000000,0.64256796,-4.38982630,-0.03077379,-8.57892323,10291009.21005011,0.00000000,0.00000000,0.00000000,7348085.28795838,0.00000000,0.00000000,-0.00000000,9135388.76920938,0.96087521,0.64573090,1.56998064,0.94901108,0.04825971,0.29443170,-0.10177890
1.86284485,-0.95137107,0.20192474,0.22649649,0.05309259,0.24051658,0.25757843,-0.14125173,0.25757847,0.37245484,-0.37279914,-0.14125173,-0.37279921,0.78856600,-0.00664296,0.01073502,0.00457290,0.69494526,0.00000000,0.00000000,0.00000000,0.61448867,0.00000000,0.00000000,-0.00000000,0.64256796,-4.37789583,-0.03542156,-8.59087372,10291009.21005011,0.00000000,0.00000000,0.00000000,7348085.28795838,0.00000000,0.00000000,-0.00000000,9135388.76920938,0.96085106,0.64573348,1.57001971,0.94901727,0.04821947,0.29441606,-0.10178550
1.86778488,-0.95136702,0.20194784,0.22651564,0.05299567,0.24045263,0.25761629,-0.14134349,0.25761629,0.37251648,-0.37282598,-0.14134347,-0.37282598,0.78867391,-0.00239749,0.01288491,0.00026509,0.69494526,0.00000000,0.00000000,0.00000000,0.61448867,0.00000000,0.00000000,-0.00000000,0.64256796,-4.37079048,-0.03295489,-8.61236858,10291009.21005011,0.00000000,0.00000000,0.00000000,7348085.28795838,0.00000000,0.00000000,-0.00000000,9135388.76920938,0.96082564,0.64573353,1.57006075,0.94902403,0.04818080,0.29439826,-0.10179228
1.87272491,-0.95136184,0.20197019,0.22653718,0.05291069,0.24040267,0.25765511,-0.14142798,0.25765514,0.37257941,-0.37285628,-0.14142799,-0.37285628,0.78876970,0.00238558,0.01083037,0.00027327,0.69494526,0.00000000,0.00000000,0.00000000,0.61448867,0.00000000,0.00000000,-0.00000000,0.64256796,-4.36124611,-0.02569480,-8.58849239,10291009.21005011,0.00000000,0.00000000,0.00000000,7348085.28795838,0.00000000,0.00000000,-0.00000000,9135388.76920938,0.96079856,0.64573064,1.57010447,0.94903153,0.04814421,0.29437750,-0.10179969
1.87766495,-0.95135480,0.20199259,0.22656368,0.05283882,0.24037023,0.25769926,-0.14150544,0.25769926,0.37265248,-0.37289867,-0.14150542,-0.37289860,0.78884928,0.00557462,0.01033774,0.00028538,0.69494526,0.00000000,0.00000000,0.00000000,0.61448867,0.00000000,0.00000000,-0.00000000,0.64256796,-4.35891294,-0.03282464,-8.55507946,10291009.21005011,0.00000000,0.00000000,0.00000000,7348085.28795838,0.00000000,0.00000000,-0.00000000,9135388.76920938,0.96077459,0.64572563,1.57014323,0.94903836,0.04811606,0.29435763,-0.10180677
1.88260498,-0.95134586,0.20201424,0.22659539,0.05278013,0.24035471,0.25774799,-0.14157574,0.25774802,0.37273563,-0.37295377,-0.14157577,-0.37295377,0.78891141,0.00769622,0.01035977,-0.00024983,0.69494526,0.00000000,0.00000000,0.00000000,0.61448867,0.00000000,0.00000000,-0.00000000,0.64256796,-4.34698248,-0.05179192,-8.57181835,10291009.21005011,0.00000000,0.00000000,0.00000000,7348085.28795838,0.00000000,0.00000000,-0.00000000,9135388.76920938,0.96074841,0.64571754,1.57018567,0.94904596,0.04809022,0.29433434,-0.10181547
1.90236485,-0.95131540,0.20215960,0.22665982,0.05249535,0.24028895,0.25797150,-0.14187301,0.25797150,0.37307539,-0.37316668,-0.14187295,-0.37316665,0.78931514,0.01085690,0.00723072,0.01002711,0.69494526,0.00000000,0.00000000,0.00000000,0.61448867,0.00000000,0.00000000,-0.00000000,0.64256796,-4.34213066,-0.03742949,-8.61716270,10291009.21005011,0.00000000,0.00000000,0.00000000,7348085.28795838,0.00000000,0.00000000,-0.00000000,9135388.76920938,0.96062626,0.64564643,1.57037991,0.94907956,0.04803534,0.29421465,-0.10187407
1.91965483,-0.95127726,0.20238072,0.22669122,0.05219873,0.24030062,0.25827417,-0.14216340,0.25827415,0.37350021,-0.37342323,-0.14216337,-0.37342316,0.78984859,0.00872545,0.00457522,0.01650210,0.69494526,0.00000000,0.00000000,0.00000000,0.61448867,0.00000000,0.00000000,-0.00000000,0.64256796,-4.33250713,-0.09700107,-8.62199306,10291009.21005011,0.00000000,0.00000000,0.00000000,7348085.28795838,0.00000000,0.00000000,-0.00000000,9135388.76920938,0.96054356,0.64557483,1.57049470,0.94909517,0.04803813,0.29414589,-0.10192591
1.92459487,-0.95127028,0.20244610,0.22668062,0.05211816,0.24030231,0.25835516,-0.14223470,0.25835516,0.37360722,-0.37348092,-0.14223471,-0.37348096,0.79001406,0.01245171,0.00251040,0.01542491,0.69494526,0.00000000,0.00000000,0.00000000,0.61448867,0.00000000,0.00000000,-0.00000000,0.64256796,-4.30626059,-0.12775078,-8.60055161,10291009.21005011,0.00000000,0.00000000,0.00000000,7348085.28795838,0.00000000,0.00000000,-0.00000000,9135388.76920938,0.96053129,0.64556304,1.57051010,0.94909693,0.04804024,0.29413706,-0.10193400
1.93941496,-0.95130885,0.20251350,0.22646208,0.05210272,0.24028171,0.25835580,-0.14218605,0.25835580,0.37350579,-0.37334295,-0.14218604,-0.37334299,0.79033904,0.02262527,-0.00105303,-0.00998732,0.69494526,0.00000000,0.00000000,0.00000000,0.61448867,0.00000000,0.00000000,-0.00000000,0.64256796,-4.23950338,-0.23921321,-8.53385448,10291009.21005011,0.00000000,0.00000000,0.00000000,7348085.28795838,0.00000000,0.00000000,-0.00000000,9135388.76920938,0.96042822,0.64545439,1.57062244,0.94910730,0.04807718,0.29407540,-0.10199796
1.94435499,-0.95133322,0.20247483,0.22636810,0.05221642,0.24030993,0.25826939,-0.14206889,0.25826938,0.37333655,-0.37323276,-0.14206890,-0.37323279,0.79030648,0.02581605,0.00161386,-0.01917196,0.69494526,0.00000000,0.00000000,0.00000000,0.61448867,0.00000000,0.00000000,-0.00000000,0.64256796,-4.23473120,-0.25825575,-8.55058765,10291009.21005011,0.00000000,0.00000000,0.00000000,7348085.28795838,0.00000000,0.00000000,-0.00000000,9135388.76920938,0.96028975,0.64527925,1.57073680,0.94911572,0.04825975,0.29401584,-0.10200507
1.94929477,-0.95136112,0.20241249,0.22627273,0.05236404,0.24034204,0.25815390,-0.14192570,0.25815390,0.37312575,-0.37310151,-0.14192571,-0.37310144,0.79021644,0.03379873,0.00064889,-0.02998041,0.69494526,0.00000000,0.00000000,0.00000000,0.61448867,0.00000000,0.00000000,-0.00000000,0.64256796,-4.22036171,-0.26288325,-8.56492138,10291009.21005011,0.00000000,0.00000000,0.00000000,7348085.28795838,0.00000000,0.00000000,-0.00000000,9135388.76920938,0.96028529,0.64527294,1.57073994,0.94911601,0.04827013,0.29401418,-0.10200222
1.95423480,-0.95139289,0.20232812,0.22617583,0.05252996,0.24036323,0.25800892,-0.14176799,0.25800890,0.37287235,-0.37294722,-0.14176799,-0.37294722,0.79008249,0.03806735,0.00122408,-0.04079091,0.69494526,0.00000000,0.00000000,0.00000000,0.61448867,0.00000000,0.00000000,-0.00000000,0.64256796,-4.22036171,-0.25572348,-8.56968880,10291009.21005011,0.00000000,0.00000000,0.00000000,7348085.28795838,0.00000000,0.00000000,-0.00000000,9135388.76920938,0.96028500,0.64527253,1.57074014,0.94911603,0.04827081,0.29401407,-0.10200203
1.96905490,-0.95149773,0.20201209,0.22588438,0.05309848,0.24041935,0.25749139,-0.14124454,0.25749141,0.37199217,-0.37242132,-0.14124452,-0.37242128,0.78954051,0.04607203,-0.00184315,-0.05268254,0.69494526,0.00000000,0.00000000,0.00000000,0.61448867,0.00000000,0.00000000,-0.00000000,0.64256796,-4.27762747,-0.18711448,-8.62211323,10291009.21005011,0.00000000,0.00000000,0.00000000,7348085.28795838,0.00000000,0.00000000,-0.00000000,9135388.76920938,0.96026658,0.64524592,1.57075278,0.94911730,0.04831773,0.29400737,-0.10198730
1.98387499,-0.95159072,0.20173171,0.22561730,0.05363070,0.24049947,0.25702301,-0.14076352,0.25702304,0.37119379,-0.37196519,-0.14076351,-0.37196519,0.78905381,0.04021675,-0.00559303,-0.03538795,0.69494526,0.00000000,0.00000000,0.00000000,0.61448867,0.00000000,0.00000000,-0.00000000,0.64256796,-4.34923649,-0.07330836,-8.71746254,10291009.21005011,0.00000000,0.00000000,0.00000000,7348085.28795838,0.00000000,0.00000000,-0.00000000,9135388.76920938,0.96019088,0.64512823,1.57079632,0.94912281,0.04857172,0.29398577,-0.10187759
1.98881477,-0.95161593,0.20167501,0.22552936,0.05376640,0.24053185,0.25690812,-0.14063660,0.25690808,0.37098500,-0.37185164,-0.14063660,-0.37185164,0.78897146,0.03063839,-0.00517142,-0.02350740,0.69494526,0.00000000,0.00000000,0.00000000,0.61448867,0.00000000,0.00000000,-0.00000000,0.64256796,-4.38502741,-0.06175167,-8.71743011,10291009.21005011,0.00000000,0.00000000,0.00000000,7348085.28795838,0.00000000,0.00000000,-0.00000000,9135388.76920938,0.96017822,0.64510729,1.57080177,0.94912363,0.04862275,0.29398373,-0.10185148
2.00363487,-0.95166469,0.20163676,0.22529203,0.05404118,0.24068031,0.25674881,-0.14036855,0.25674885,0.37063148,-0.37166349,-0.14036852,-0.37166345,0.78897741,0.01999896,-0.01055219,0.00188761,0.69494526,0.00000000,0.00000000,0.00000000,0.61448867,0.00000000,0.00000000,-0.00000000,0.64256796,-4.39459848,-0.10719474,-8.67926979,10291009.21005011,0.00000000,0.00000000,0.00000000,7348085.28795838,0.00000000,0.00000000,-0.00000000,9135388.76920938,0.96010107,0.64496968,1.57081761,0.94912603,0.04897909,0.29398750,-0.10164728
2.00857490,-0.95167577,0.20165099,0.22521810,0.05410181,0.24073544,0.25673463,-0.14030405,0.25673462,0.37057344,-0.37163478,-0.14030403,-0.37163474,0.78903365,0.01785793,-0.00847194,0.00459285,0.69494526,0.00000000,0.00000000,0.00000000,0.61448867,0.00000000,0.00000000,-0.00000000,0.64256796,-4.36119318,-0.15218873,-8.67694664,10291009.21005011,0.00000000,0.00000000,0.00000000,7348085.28795838,0.00000000,0.00000000,-0.00000000,9135388.76920938,0.96009032,0.64494803,1.57081675,0.94912572,0.04903598,0.29399076,-0.10161333
2.01351493,-0.95168698,0.20166425,0.22514237,0.05416979,0.24079702,0.25672165,-0.14023292,0.25672161,0.37051682,-0.37160413,-0.14023290,-0.37160417,0.78908505,0.01944428,-0.00740360,0.00460221,0.69494526,0.00000000,0.00000000,0.00000000,0.61448867,0.00000000,0.00000000,-0.00000000,0.64256796,-4.33735895,-0.19966722,-8.64835930,10291009.21005011,0.00000000,0.00000000,0.00000000,7348085.28795838,0.00000000,0.00000000,-0.00000000,9135388.76920938,0.96007503,0.64491524,1.57081358,0.94912476,0.04912123,0.29399707,-0.10156287
2.01845496,-0.95169455,0.20167686,0.22507869,0.05425335,0.24088160,0.25671699,-0.14015550,0.25671699,0.37047530,-0.37158893,-0.14015549,-0.37158896,0.78911691,0.01894207,-0.01214210,0.00513003,0.69494526,0.00000000,0.00000000,0.00000000,0.61448867,0.00000000,0.00000000,-0.00000000,0.64256796,-4.30872583,-0.23516501,-8.62214756,10291009.21005011,0.00000000,0.00000000,0.00000000,7348085.28795838,0.00000000,0.00000000,-0.00000000,9135388.76920938,0.96005602,0.64486976,1.57080542,0.94912238,0.04923718,0.29400842,-0.10149613
2.03574495,-0.95172685,0.20162143,0.22489178,0.05466652,0.24119105,0.25661084,-0.13980494,0.25661084,0.37023939,-0.37151451,-0.13980492,-0.37151454,0.78897547,0.02272070,-0.01472401,-0.01164071,0.69494526,0.00000000,0.00000000,0.00000000,0.61448867,0.00000000,0.00000000,-0.00000000,0.64256796,-4.22285366,-0.29869747,-8.59122753,10291009.21005011,0.00000000,0.00000000,0.00000000,7348085.28795838,0.00000000,0.00000000,-0.00000000,9135388.76920938,0.96001882,0.64473900,1.57075663,0.94910756,0.04955541,0.29405715,-0.10133851
2.05056479,-0.95177233,0.20145345,0.22474097,0.05511309,0.24139648,0.25637418,-0.13943732,0.25637421,0.36984221,-0.37134004,-0.13943731,-0.37134000,0.78861469,0.02964786,-0.01622461,-0.02679192,0.69494526,0.00000000,0.00000000,0.00000000,0.61448867,0.00000000,0.00000000,-0.00000000,0.64256796,-4.23223925,-0.27494645,-8.61028385,10291009.21005011,0.00000000,0.00000000,0.00000000,7348085.28795838,0.00000000,0.00000000,-0.00000000,9135388.76920938,0.96001044,0.64463212,1.57068210,0.94908556,0.04979608,0.29411977,-0.10124482
2.05550482,-0.95178938,0.20138280,0.22469272,0.05527292,0.24145809,0.25627816,-0.13930753,0.25627815,0.36968668,-0.37126845,-0.13930752,-0.37126845,0.78846446,0.03126412,-0.01673062,-0.03165275,0.69494526,0.00000000,0.00000000,0.00000000,0.61448867,0.00000000,0.00000000,-0.00000000,0.64256796,-4.23947668,-0.25830832,-8.61027145,10291009.21005011,0.00000000,0.00000000,0.00000000,7348085.28795838,0.00000000,0.00000000,-0.00000000,9135388.76920938,0.96001055,0.64462756,1.57067799,0.94908441,0.04980587,0.29412311,-0.10124106
2.07032491,-0.95183951,0.20115255,0.22456947,0.05574699,0.24162200,0.25597067,-0.13893274,0.25597069,0.36920237,-0.37104997,-0.13893272,-0.37104997,0.78797893,0.03130655,-0.02304149,-0.02786909,0.69494526,0.00000000,0.00000000,0.00000000,0.61448867,0.00000000,0.00000000,-0.00000000,0.64256796,-4.27301407,-0.21091565,-8.66990471,10291009.21005011,0.00000000,0.00000000,0.00000000,7348085.28795838,0.00000000,0.00000000,-0.00000000,9135388.76920938,0.96002944,0.64451299,1.57054013,0.94904919,0.05003510,0.29423302,-0.10113881
2.07526495,-0.95185345,0.20108746,0.22453301,0.05589114,0.24167964,0.25588418,-0.13882053,0.25588418,0.36906706,-0.37099760,-0.13882054,-0.37099764,0.78783854,0.02597428,-0.02099480,-0.02626636,0.69494526,0.00000000,0.00000000,0.00000000,0.61448867,0.00000000,0.00000000,-0.00000000,0.64256796,-4.30151463,-0.18736289,-8.68417740,10291009.21005011,0.00000000,0.00000000,0.00000000,7348085.28795838,0.00000000,0.00000000,-0.00000000,9135388.76920938,0.96003097,0.64450848,1.57053304,0.94904752,0.05004338,0.29423860,-0.10113410
2.08020498,-0.95186287,0.20103490,0.22450596,0.05602801,0.24175172,0.25581748,-0.13871868,0.25581748,0.36896061,-0.37096398,-0.13871869,-0.37096398,0.78771484,0.02281433,-0.02734129,-0.01979690,0.69494526,0.00000000,0.00000000,0.00000000,0.61448867,0.00000000,0.00000000,-0.00000000,0.64256796,-4.33491993,-0.16862135,-8.70562744,10291009.21005011,0.00000000,0.00000000,0.00000000,7348085.28795838,0.00000000,0.00000000,-0.00000000,9135388.76920938,0.96004163,0.64448168,1.57048789,0.94903712,0.05009139,0.29427403,-0.10110485
2.08514475,-0.95187002,0.20099977,0.22447728,0.05614624,0.24182644,0.25577163,-0.13862993,0.25577165,0.36888865,-0.37095418,-0.13862993,-0.37095418,0.78762590,0.01906825,-0.02475407,-0.01113728,0.69494526,0.00000000,0.00000000,0.00000000,0.61448867,0.00000000,0.00000000,-0.00000000,0.64256796,-4.35883331,-0.16170757,-8.74380970,10291009.21005011,0.00000000,0.00000000,0.00000000,7348085.28795838,0.00000000,0.00000000,-0.00000000,9135388.76920938,0.96005516,0.64445536,1.57043808,0.94902584,0.05013695,0.29431317,-0.10107421
2.09996485,-0.95187348,0.20100021,0.22440837,0.05636186,0.24204829,0.25576306,-0.13847518,0.25576311,0.36885266,-0.37102569,-0.13847518,-0.37102562,0.78760007,0.00098664,-0.02705577,0.01315787,0.69494526,0.00000000,0.00000000,0.00000000,0.61448867,0.00000000,0.00000000,-0.00000000,0.64256796,-4.37550974,-0.18813802,-8.83216095,10291009.21005011,0.00000000,0.00000000,0.00000000,7348085.28795838,0.00000000,0.00000000,-0.00000000,9135388.76920938,0.96023759,0.64429744,1.57000568,0.94892012,0.05041641,0.29466830,-0.10089291
2.11725483,-0.95185810,0.20111209,0.22435869,0.05642026,0.24225690,0.25590616,-0.13844594,0.25590617,0.36904722,-0.37122104,-0.13844589,-0.37122101,0.78784553,-0.00329564,-0.02605342,0.02234205,0.69494526,0.00000000,0.00000000,0.00000000,0.61448867,0.00000000,0.00000000,-0.00000000,0.64256796,-4.30861998,-0.27813324,-8.79408073,10291009.21005011,0.00000000,0.00000000,0.00000000,7348085.28795838,0.00000000,0.00000000,-0.00000000,9135388.76920938,0.96024471,0.64429378,1.56999269,0.94891653,0.05042414,0.29467955,-0.10088997
2.12219487,-0.95185763,0.20113380,0.22433850,0.05643056,0.24229128,0.25592962,-0.13843826,0.25592962,0.36907240,-0.37125211,-0.13843823,-0.37125204,0.78791597,-0.01070315,-0.02454783,0.01474845,0.69494526,0.00000000,0.00000000,0.00000000,0.61448867,0.00000000,0.00000000,-0.00000000,0.64256796,-4.29191732,-0.29466379,-8.74874401,10291009.21005011,0.00000000,0.00000000,0.00000000,7348085.28795838,0.00000000,0.00000000,-0.00000000,9135388.76920938,0.96024539,0.64429343,1.56999146,0.94891619,0.05042487,0.29468061,-0.10088970
2.13701496,-0.95185655,0.20114702,0.22430173,0.05654821,0.24243247,0.25596065,-0.13836026,0.25596068,0.36911586,-0.37133699,-0.13836026,-0.37133688,0.78797021,-0.00640053,-0.02712629,0.00394120,0.69494526,0.00000000,0.00000000,0.00000000,0.61448867,0.00000000,0.00000000,-0.00000000,0.64256796,-4.32068300,-0.27347341,-8.74155521,10291009.21005011,0.00000000,0.00000000,0.00000000,7348085.28795838,0.00000000,0.00000000,-0.00000000,9135388.76920938,0.96039772,0.64423031,1.56974016,0.94884827,0.05057184,0.29488366,-0.10086163
2.14195499,-0.95186180,0.20113179,0.22428010,0.05659957,0.24246093,0.25594235,-0.13832024,0.25594236,0.36908985,-0.37133647,-0.13832026,-0.37133650,0.78795933,0.00048099,-0.02337195,-0.00090083,0.69494526,0.00000000,0.00000000,0.00000000,0.61448867,0.00000000,0.00000000,-0.00000000,0.64256796,-4.32784081,-0.26400229,-8.75825500,10291009.21005011,0.00000000,0.00000000,0.00000000,7348085.28795838,0.00000000,0.00000000,-0.00000000,9135388.76920938,0.96042049,0.64422274,1.56970543,0.94883986,0.05059072,0.29490758,-0.10086139
2.14689477,-0.95186752,0.20111409,0.22425708,0.05665851,0.24249380,0.25591606,-0.13827526,0.25591604,0.36904431,-0.37132653,-0.13827527,-0.37132649,0.78794389,-0.00110224,-0.02654469,-0.00146558,0.69494526,0.00000000,0.00000000,0.00000000,0.61448867,0.00000000,0.00000000,-0.00000000,0.64256796,-4.36349964,-0.26200405,-8.75583076,10291009.21005011,0.00000000,0.00000000,0.00000000,7348085.28795838,0.00000000,0.00000000,-0.00000000,9135388.76920938,0.96047631,0.64420576,1.56962272,0.94882065,0.05063362,0.29496144,-0.10086310
2.15183480,-0.95187229,0.20109016,0.22424397,0.05671424,0.24251904,0.25588862,-0.13823589,0.25588862,0.36900504,-0.37132133,-0.13823590,-0.37132137,0.78791466,-0.00108615,-0.02759466,-0.00471535,0.69494526,0.00000000,0.00000000,0.00000000,0.61448867,0.00000000,0.00000000,-0.00000000,0.64256796,-4.41360712,-0.25775760,-8.75579548,10291009.21005011,0.00000000,0.00000000,0.00000000,7348085.28795838,0.00000000,0.00000000,-0.00000000,9135388.76920938,0.96053182,0.64419091,1.56954363,0.94880305,0.05067152,0.29501029,-0.10086672
2.16665490,-0.95188642,0.20098023,0.22422825,0.05692876,0.24260624,0.25577615,-0.13809128,0.25577617,0.36886430,-0.37130693,-0.13809128,-0.37130696,0.78772370,-0.00108676,-0.02548915,-0.00795497,0.69494526,0.00000000,0.00000000,0.00000000,0.61448867,0.00000000,0.00000000,-0.00000000,0.64256796,-4.47089958,-0.26313034,-8.77725506,10291009.21005011,0.00000000,0.00000000,0.00000000,7348085.28795838,0.00000000,0.00000000,-0.00000000,9135388.76920938,0.96075689,0.64414787,1.56925161,0.94873952,0.05078229,0.29519053,-0.10088128
2.18147499,-0.95189029,0.20083256,0.22428356,0.05716645,0.24269861,0.25565179,-0.13795516,0.25565174,0.36874205,-0.37133062,-0.13795514,-0.37133058,0.78743121,-0.00954016,-0.02873066,-0.00743891,0.69494526,0.00000000,0.00000000,0.00000000,0.61448867,0.00000000,0.00000000,-0.00000000,0.64256796,-4.55210590,-0.24726979,-8.78674793,10291009.21005011,0.00000000,0.00000000,0.00000000,7348085.28795838,0.00000000,0.00000000,-0.00000000,9135388.76920938,0.96097756,0.64412730,1.56900218,0.94868264,0.05085479,0.29536269,-0.10087579
2.18641477,-0.95188224,0.20077884,0.22434342,0.05725449,0.24275343,0.25563207,-0.13792024,0.25563210,0.36875930,-0.37139337,-0.13792022,-0.37139340,0.78728645,-0.01062492,-0.02295498,-0.01121571,0.69494526,0.00000000,0.00000000,0.00000000,0.61448867,0.00000000,0.00000000,-0.00000000,0.64256796,-4.55926418,-0.24257186,-8.77241325,10291009.21005011,0.00000000,0.00000000,0.00000000,7348085.28795838,0.00000000,0.00000000,-0.00000000,9135388.76920938,0.96098050,0.64412716,1.56899904,0.94868189,0.05085558,0.29536503,-0.10087554
2.20370475,-0.95182586,0.20059752,0.22467686,0.05751935,0.24296592,0.25564071,-0.13788415,0.25564073,0.36900452,-0.37176523,-0.13788418,-0.37176527,0.78670583,-0.01171794,-0.01981246,-0.00959392,0.69494526,0.00000000,0.00000000,0.00000000,0.61448867,0.00000000,0.00000000,-0.00000000,0.64256796,-4.53293753,-0.20173123,-8.78909492,10291009.21005011,0.00000000,0.00000000,0.00000000,7348085.28795838,0.00000000,0.00000000,-0.00000000,9135388.76920938,0.96124461,0.64412847,1.56872868,0.94861541,0.05089598,0.29558665,-0.10083124
2.20864479,-0.95180678,0.20055428,0.22477961,0.05758433,0.24302995,0.25565813,-0.13788518,0.25565809,0.36910125,-0.37188831,-0.13788518,-0.37188835,0.78655137,-0.01118891,-0.02191284,-0.00581162,0.69494526,0.00000000,0.00000000,0.00000000,0.61448867,0.00000000,0.00000000,-0.00000000,0.64256796,-4.52336693,-0.20640649,-8.79149151,10291009.21005011,0.00000000,0.00000000,0.00000000,7348085.28795838,0.00000000,0.00000000,-0.00000000,9135388.76920938,0.96125420,0.64412907,1.56871917,0.94861299,0.05089608,0.29559519,-0.10082892
2.21358482,-0.95178753,0.20051445,0.22487979,0.05764977,0.24309832,0.25567981,-0.13788495,0.25567984,0.36920448,-0.37201676,-0.13788495,-0.37201679,0.78640004,-0.01173516,-0.01981540,-0.00472546,0.69494526,0.00000000,0.00000000,0.00000000,0.61448867,0.00000000,0.00000000,-0.00000000,0.64256796,-4.52336693,-0.19686015,-8.78909492,10291009.21005011,0.00000000,0.00000000,0.00000000,7348085.28795838,0.00000000,0.00000000,-0.00000000,9135388.76920938,0.96132190,0.64413444,1.56865264,0.94859589,0.05089371,0.29565634,-0.10081166
2.21852485,-0.95176595,0.20048015,0.22498758,0.05770480,0.24316619,0.25571141,-0.13789570,0.25571141,0.36932410,-0.37215514,-0.13789568,-0.37215518,0.78625964,-0.01172796,-0.02086767,-0.00201545,0.69494526,0.00000000,0.00000000,0.00000000,0.61448867,0.00000000,0.00000000,-0.00000000,0.64256796,-4.53776312,-0.17791070,-8.76519871,10291009.21005011,0.00000000,0.00000000,0.00000000,7348085.28795838,0.00000000,0.00000000,-0.00000000,9135388.76920938,0.96138770,0.64414161,1.56858880,0.94857926,0.05088577,0.29571714,-0.10079387
2.22346488,-0.95174313,0.20044930,0.22509915,0.05775435,0.24323410,0.25574879,-0.13791192,0.25574878,0.36945261,-0.37229969,-0.13791194,-0.37229969,0.78612479,-0.01384470,-0.02141527,-0.00202275,0.69494526,0.00000000,0.00000000,0.00000000,0.61448867,0.00000000,0.00000000,-0.00000000,0.64256796,-4.55685186,-0.15901867,-8.74368191,10291009.21005011,0.00000000,0.00000000,0.00000000,7348085.28795838,0.00000000,0.00000000,-0.00000000,9135388.76920938,0.96145440,0.64415091,1.56852490,0.94856235,0.05087151,0.29578007,-0.10077551
2.23334495,-0.95168602,0.20042823,0.22534318,0.05781573,0.24339573,0.25588368,-0.13798396,0.25588370,0.36980751,-0.37265806,-0.13798398,-0.37265809,0.78591278,-0.01602376,-0.01881531,0.01150534,0.69494526,0.00000000,0.00000000,0.00000000,0.61448867,0.00000000,0.00000000,-0.00000000,0.64256796,-4.59500217,-0.11646385,-8.79614162,10291009.21005011,0.00000000,0.00000000,0.00000000,7348085.28795838,0.00000000,0.00000000,-0.00000000,9135388.76920938,0.96164036,0.64418726,1.56835359,0.94851311,0.05079349,0.29596733,-0.10072853
2.25310482,-0.95153522,0.20057262,0.22587626,0.05771693,0.24375085,0.25640799,-0.13831269,0.25640798,0.37089572,-0.37359631,-0.13831264,-0.37359624,0.78585411,-0.02987790,-0.01581164,0.03095941,0.69494526,0.00000000,0.00000000,0.00000000,0.61448867,0.00000000,0.00000000,-0.00000000,0.64256796,-4.63320637,-0.17414084,-8.79856205,10291009.21005011,0.00000000,0.00000000,0.00000000,7348085.28795838,0.00000000,0.00000000,-0.00000000,9135388.76920938,0.96191611,0.64426595,1.56813412,0.94842264,0.05055001,0.29630799,-0.10070136
2.25804485,-0.95149589,0.20062403,0.22600685,0.05767561,0.24384122,0.25656136,-0.13840501,0.25656139,0.37120096,-0.37384382,-0.13840500,-0.37384379,0.78587323,-0.02670298,-0.01367412,0.02826772,0.69494526,0.00000000,0.00000000,0.00000000,0.61448867,0.00000000,0.00000000,-0.00000000,0.64256796,-4.63082027,-0.20036821,-8.77710152,10291009.21005011,0.00000000,0.00000000,0.00000000,7348085.28795838,0.00000000,0.00000000,-0.00000000,9135388.76920938,0.96191754,0.64426642,1.56813314,0.94842208,0.05054829,0.29631004,-0.10070144
2.27780498,-0.95139611,0.20066251,0.22641236,0.05759753,0.24400541,0.25689201,-0.13865231,0.25689201,0.37195899,-0.37449419,-0.13865231,-0.37449416,0.78577495,-0.01872788,0.00062540,-0.00521677,0.69494526,0.00000000,0.00000000,0.00000000,0.61448867,0.00000000,0.00000000,-0.00000000,0.64256796,-4.51403427,-0.27549785,-8.75815773,10291009.21005011,0.00000000,0.00000000,0.00000000,7348085.28795838,0.00000000,0.00000000,-0.00000000,9135388.76920938,0.96212714,0.64434188,1.56800900,0.94833548,0.05025902,0.29662410,-0.10073726
2.28274475,-0.95138621,0.20061724,0.22648744,0.05762339,0.24400702,0.25688852,-0.13866816,0.25688850,0.37201115,-0.37456241,-0.13866817,-0.37456245,0.78567057,-0.01501405,0.00013922,-0.01225871,0.69494526,0.00000000,0.00000000,0.00000000,0.61448867,0.00000000,0.00000000,-0.00000000,0.64256796,-4.51623535,-0.26360691,-8.72231483,10291009.21005011,0.00000000,0.00000000,0.00000000,7348085.28795838,0.00000000,0.00000000,-0.00000000,9135388.76920938,0.96216803,0.64435827,1.56798943,0.94831988,0.05019956,0.29668071,-0.10074707
2.28768479,-0.95138031,0.20055386,0.22655563,0.05767354,0.24400769,0.25685998,-0.13866323,0.25685998,0.37202372,-0.37460473,-0.13866325,-0.37460477,0.78552900,-0.00808705,-0.00188920,-0.02036238,0.69494526,0.00000000,0.00000000,0.00000000,0.61448867,0.00000000,0.00000000,-0.00000000,0.64256796,-4.50430489,-0.24200222,-8.71991444,10291009.21005011,0.00000000,0.00000000,0.00000000,7348085.28795838,0.00000000,0.00000000,-0.00000000,9135388.76920938,0.96222015,0.64438000,1.56796700,0.94830180,0.05012533,0.29674694,-0.10075910
2.30250488,-0.95139199,0.20028283,0.22669138,0.05788862,0.24393512,0.25662407,-0.13857232,0.25662407,0.37181244,-0.37456827,-0.13857230,-0.37456820,0.78500434,0.00091627,0.00715139,-0.03492217,0.69494526,0.00000000,0.00000000,0.00000000,0.61448867,0.00000000,0.00000000,-0.00000000,0.64256796,-4.48765564,-0.14158517,-8.77952003,10291009.21005011,0.00000000,0.00000000,0.00000000,7348085.28795838,0.00000000,0.00000000,-0.00000000,9135388.76920938,0.96239028,0.64445619,1.56791926,0.94826315,0.04991643,0.29689999,-0.10077573
2.31732498,-0.95138669,0.20008233,0.22685958,0.05800973,0.24387398,0.25646913,-0.13857746,0.25646912,0.37170536,-0.37460910,-0.13857744,-0.37460906,0.78459929,0.00297859,0.00926841,-0.01975763,0.69494526,0.00000000,0.00000000,0.00000000,0.61448867,0.00000000,0.00000000,-0.00000000,0.64256796,-4.57355452,-0.01361248,-8.73398209,10291009.21005011,0.00000000,0.00000000,0.00000000,7348085.28795838,0.00000000,0.00000000,-0.00000000,9135388.76920938,0.96253769,0.64452505,1.56792028,0.94826463,0.04981844,0.29692546,-0.10073525
2.32473490,-0.95137179,0.20007521,0.22694388,0.05794934,0.24383970,0.25650484,-0.13867492,0.25650480,0.37180676,-0.37470703,-0.13867491,-0.37470710,0.78459112,0.00293525,0.00926024,-0.00406093,0.69494526,0.00000000,0.00000000,0.00000000,0.61448867,0.00000000,0.00000000,-0.00000000,0.64256796,-4.56403637,0.01274274,-8.71486568,10291009.21005011,0.00000000,0.00000000,0.00000000,7348085.28795838,0.00000000,0.00000000,-0.00000000,9135388.76920938,0.96255289,0.64453203,1.56792310,0.94826685,0.04981458,0.29692145,-0.10072804
2.32967493,-0.95135945,0.20010400,0.22698970,0.05787292,0.24381843,0.25656269,-0.13876341,0.25656271,0.37191238,-0.37478821,-0.13876339,-0.37478824,0.78466537,-0.00292498,0.00866846,0.00728626,0.69494526,0.00000000,0.00000000,0.00000000,0.61448867,0.00000000,0.00000000,-0.00000000,0.64256796,-4.54017544,0.02492650,-8.71009445,10291009.21005011,0.00000000,0.00000000,0.00000000,7348085.28795838,0.00000000,0.00000000,-0.00000000,9135388.76920938,0.96259565,0.64455133,1.56793398,0.94827520,0.04981072,0.29690312,-0.10070539
2.33461496,-0.95134890,0.20014577,0.22702007,0.05778221,0.24379208,0.25663221,-0.13885529,0.25663221,0.37202885,-0.37486537,-0.13885528,-0.37486537,0.78477813,-0.00190551,0.01341006,0.01108944,0.69494526,0.00000000,0.00000000,0.00000000,0.61448867,0.00000000,0.00000000,-0.00000000,0.64256796,-4.51631451,0.01085781,-8.69340992,10291009.21005011,0.00000000,0.00000000,0.00000000,7348085.28795838,0.00000000,0.00000000,-0.00000000,9135388.76920938,0.96263760,0.64456971,1.56794882,0.94828628,0.04981665,0.29687501,-0.10068104
2.33955499,-0.95133489,0.20020254,0.22705173,0.05769214,0.24378862,0.25672208,-0.13894836,0.25672208,0.37216997,-0.37495703,-0.13894836,-0.37495707,0.78491021,-0.00031839,0.01131999,0.01650054,0.69494526,0.00000000,0.00000000,0.00000000,0.61448867,0.00000000,0.00000000,-0.00000000,0.64256796,-4.49245358,-0.01991700,-8.67196655,10291009.21005011,0.00000000,0.00000000,0.00000000,7348085.28795838,0.00000000,0.00000000,-0.00000000,9135388.76920938,0.96268112,0.64458803,1.56796852,0.94830062,0.04983244,0.29683518,-0.10065553
2.34449477,-0.95131761,0.20026697,0.22708960,0.05760477,0.24380264,0.25682765,-0.13904264,0.25682767,0.37233533,-0.37506647,-0.13904266,-0.37506650,0.78504486,0.00126884,0.00817810,0.01919188,0.69494526,0.00000000,0.00000000,0.00000000,0.61448867,0.00000000,0.00000000,-0.00000000,0.64256796,-4.47084713,-0.05311555,-8.65528584,10291009.21005011,0.00000000,0.00000000,0.00000000,7348085.28795838,0.00000000,0.00000000,-0.00000000,9135388.76920938,0.96272184,0.64460432,1.56799087,0.94831650,0.04985558,0.29678802,-0.10063353
2.34943480,-0.95129621,0.20033891,0.22713806,0.05751624,0.24383142,0.25694870,-0.13914274,0.25694869,0.37252677,-0.37519769,-0.13914276,-0.37519772,0.78518144,-0.00083454,0.00342125,0.02350354,0.69494526,0.00000000,0.00000000,0.00000000,0.61448867,0.00000000,0.00000000,-0.00000000,0.64256796,-4.43266964,-0.07658010,-8.65772057,10291009.21005011,0.00000000,0.00000000,0.00000000,7348085.28795838,0.00000000,0.00000000,-0.00000000,9135388.76920938,0.96276042,0.64461879,1.56801547,0.94833342,0.04988406,0.29673503,-0.10061625
2.35437483,-0.95127547,0.20041510,0.22718082,0.05742497,0.24386054,0.25707514,-0.13924206,0.25707518,0.37272943,-0.37533597,-0.13924206,-0.37533597,0.78532613,0.00075278,0.00712076,0.02353289,0.69494526,0.00000000,0.00000000,0.00000000,0.61448867,0.00000000,0.00000000,-0.00000000,0.64256796,-4.39229155,-0.09761605,-8.67926979,10291009.21005011,0.00000000,0.00000000,0.00000000,7348085.28795838,0.00000000,0.00000000,-0.00000000,9135388.76920938,0.96279906,0.64463214,1.56804324,0.94835138,0.04991683,0.29667634,-0.10060377
2.36919493,-0.95122212,0.20063195,0.22728088,0.05715498,0.24392252,0.25742048,-0.13952657,0.25742048,0.37326393,-0.37568986,-0.13952657,-0.37568990,0.78576497,0.00501163,0.00453604,0.01974323,0.69494526,0.00000000,0.00000000,0.00000000,0.61448867,0.00000000,0.00000000,-0.00000000,0.64256796,-4.35164928,-0.16163473,-8.77962399,10291009.21005011,0.00000000,0.00000000,0.00000000,7348085.28795838,0.00000000,0.00000000,-0.00000000,9135388.76920938,0.96293845,0.64466730,1.56816381,0.94840885,0.05002920,0.29646955,-0.10061578
2.38401477,-0.95120817,0.20077075,0.22727290,0.05693137,0.24387492,0.25760853,-0.13973027,0.25760849,0.37351742,-0.37582312,-0.13973028,-0.37582312,0.78614841,0.01515058,0.00412570,-0.00350303,0.69494526,0.00000000,0.00000000,0.00000000,0.61448867,0.00000000,0.00000000,-0.00000000,0.64256796,-4.31344509,-0.21851391,-8.71046352,10291009.21005011,0.00000000,0.00000000,0.00000000,7348085.28795838,0.00000000,0.00000000,-0.00000000,9135388.76920938,0.96305043,0.64467782,1.56827419,0.94843515,0.05009592,0.29635340,-0.10067688
2.38895480,-0.95121950,0.20078968,0.22722067,0.05688372,0.24382657,0.25760569,-0.13975700,0.25760569,0.37348203,-0.37577779,-0.13975697,-0.37577772,0.78626262,0.01886204,0.00521694,-0.00619587,0.69494526,0.00000000,0.00000000,0.00000000,0.61448867,0.00000000,0.00000000,-0.00000000,0.64256796,-4.31821728,-0.23288360,-8.71047401,10291009.21005011,0.00000000,0.00000000,0.00000000,7348085.28795838,0.00000000,0.00000000,-0.00000000,9135388.76920938,0.96319052,0.64467111,1.56841612,0.94844918,0.05018244,0.29626882,-0.10075049
2.39389483,-0.95123875,0.20078789,0.22714950,0.05685175,0.24375682,0.25756434,-0.13976310,0.25756434,0.37337876,-0.37568494,-0.13976310,-0.37568487,0.78635737,0.01728448,0.00730876,-0.01485409,0.69494526,0.00000000,0.00000000,0.00000000,0.61448867,0.00000000,0.00000000,-0.00000000,0.64256796,-4.33014774,-0.23539560,-8.71046925,10291009.21005011,0.00000000,0.00000000,0.00000000,7348085.28795838,0.00000000,0.00000000,-0.00000000,9135388.76920938,0.96319125,0.64467102,1.56841685,0.94844923,0.05018297,0.29626848,-0.10075075
2.39883487,-0.95126158,0.20077157,0.22707264,0.05683419,0.24367981,0.25749948,-0.13975585,0.25749948,0.37323580,-0.37556387,-0.13975583,-0.37556377,0.78643176,0.01837789,0.00311472,-0.02028024,0.69494526,0.00000000,0.00000000,0.00000000,0.61448867,0.00000000,0.00000000,-0.00000000,0.64256796,-4.33961248,-0.23311660,-8.66986465,10291009.21005011,0.00000000,0.00000000,0.00000000,7348085.28795838,0.00000000,0.00000000,-0.00000000,9135388.76920938,0.96319161,0.64467098,1.56841722,0.94844926,0.05018324,0.29626831,-0.10075087
2.40377490,-0.95128506,0.20075056,0.22699302,0.05683392,0.24361453,0.25742848,-0.13973484,0.25742848,0.37308578,-0.37544218,-0.13973484,-0.37544218,0.78648717,0.02262596,0.00263321,-0.02189317,0.69494526,0.00000000,0.00000000,0.00000000,0.61448867,0.00000000,0.00000000,-0.00000000,0.64256796,-4.34677076,-0.21648572,-8.63403225,10291009.21005011,0.00000000,0.00000000,0.00000000,7348085.28795838,0.00000000,0.00000000,-0.00000000,9135388.76920938,0.96319197,0.64467094,1.56841757,0.94844928,0.05018350,0.29626815,-0.10075099
2.41118482,-0.95132548,0.20070264,0.22686583,0.05683471,0.24349025,0.25729098,-0.13969872,0.25729096,0.37280898,-0.37522733,-0.13969872,-0.37522736,0.78655775,0.02051436,0.00419174,-0.02513562,0.69494526,0.00000000,0.00000000,0.00000000,0.61448867,0.00000000,0.00000000,-0.00000000,0.64256796,-4.36832523,-0.18567860,-8.66980934,10291009.21005011,0.00000000,0.00000000,0.00000000,7348085.28795838,0.00000000,0.00000000,-0.00000000,9135388.76920938,0.96322258,0.64466716,1.56844838,0.94845136,0.05020695,0.29625452,-0.10075983
2.41365496,-0.95133978,0.20068449,0.22682238,0.05683209,0.24344201,0.25724070,-0.13968814,0.25724068,0.37270917,-0.37514993,-0.13968811,-0.37514993,0.78658226,0.01892427,0.00470188,-0.02622116,0.69494526,0.00000000,0.00000000,0.00000000,0.61448867,0.00000000,0.00000000,-0.00000000,0.64256796,-4.37309694,-0.17618242,-8.69606018,10291009.21005011,0.00000000,0.00000000,0.00000000,7348085.28795838,0.00000000,0.00000000,-0.00000000,9135388.76920938,0.96326253,0.64466121,1.56848820,0.94845397,0.05023996,0.29623834,-0.10076639
2.42106488,-0.95138228,0.20064387,0.22668645,0.05680744,0.24329410,0.25710056,-0.13966702,0.25710056,0.37242430,-0.37492524,-0.13966700,-0.37492524,0.78669343,0.01624905,0.00730174,-0.02026227,0.69494526,0.00000000,0.00000000,0.00000000,0.61448867,0.00000000,0.00000000,-0.00000000,0.64256796,-4.38987923,-0.13577877,-8.73183060,10291009.21005011,0.00000000,0.00000000,0.00000000,7348085.28795838,0.00000000,0.00000000,-0.00000000,9135388.76920938,0.96330517,0.64465375,1.56852999,0.94845672,0.05027722,0.29622289,-0.10076733
2.44082475,-0.95147300,0.20062010,0.22635888,0.05667797,0.24296585,0.25685480,-0.13967612,0.25685484,0.37185403,-0.37444751,-0.13967609,-0.37444751,0.78711683,0.01091641,0.00566246,-0.00783830,0.69494526,0.00000000,0.00000000,0.00000000,0.61448867,0.00000000,0.00000000,-0.00000000,0.64256796,-4.38266802,-0.12616201,-8.65064526,10291009.21005011,0.00000000,0.00000000,0.00000000,7348085.28795838,0.00000000,0.00000000,-0.00000000,9135388.76920938,0.96349076,0.64461045,1.56869873,0.94847058,0.05044183,0.29616993,-0.10071023
2.45564485,-0.95151871,0.20069970,0.22614285,0.05649047,0.24276950,0.25681136,-0.13976414,0.25681136,0.37164763,-0.37423193,-0.13976416,-0.37423193,0.78759972,0.00872277,0.00983914,0.00731732,0.69494526,0.00000000,0.00000000,0.00000000,0.61448867,0.00000000,0.00000000,-0.00000000,0.64256796,-4.38502741,-0.09039071,-8.72939491,10291009.21005011,0.00000000,0.00000000,0.00000000,7348085.28795838,0.00000000,0.00000000,-0.00000000,9135388.76920938,0.96364048,0.64456492,1.56881412,0.94848702,0.05055958,0.29612006,-0.10064296
2.46058488,-0.95152801,0.20074978,0.22608009,0.05640785,0.24271888,0.25683096,-0.13981293,0.25683092,0.37162865,-0.37419342,-0.13981292,-0.37419342,0.78780003,0.00447926,0.00979480,0.00947235,0.69494526,0.00000000,0.00000000,0.00000000,0.61448867,0.00000000,0.00000000,-0.00000000,0.64256796,-4.40414286,-0.07865603,-8.69833660,10291009.21005011,0.00000000,0.00000000,0.00000000,7348085.28795838,0.00000000,0.00000000,-0.00000000,9135388.76920938,0.96368229,0.64455076,1.56884293,0.94849230,0.05058877,0.29610323,-0.10062804
2.46552491,-0.95153344,0.20081101,0.22602504,0.05631796,0.24268001,0.25686930,-0.13987114,0.25686928,0.37164153,-0.37417663,-0.13987115,-0.37417663,0.78801343,0.00446189,0.00873869,0.01758753,0.69494526,0.00000000,0.00000000,0.00000000,0.61448867,0.00000000,0.00000000,-0.00000000,0.64256796,-4.41607332,-0.07400826,-8.66251278,10291009.21005011,0.00000000,0.00000000,0.00000000,7348085.28795838,0.00000000,0.00000000,-0.00000000,9135388.76920938,0.96373910,0.64453055,1.56887990,0.94849954,0.05062569,0.29607903,-0.10061245
2.47046495,-0.95153338,0.20088845,0.22598034,0.05622236,0.24266299,0.25693674,-0.13993856,0.25693672,0.37170137,-0.37419363,-0.13993861,-0.37419359,0.78824178,0.00391428,0.00925649,0.02245806,0.69494526,0.00000000,0.00000000,0.00000000,0.61448867,0.00000000,0.00000000,-0.00000000,0.64256796,-4.42800379,-0.06936050,-8.63862514,10291009.21005011,0.00000000,0.00000000,0.00000000,7348085.28795838,0.00000000,0.00000000,-0.00000000,9135388.76920938,0.96379227,0.64451067,1.56891235,0.94850616,0.05065730,0.29605542,-0.10060366
2.47540498,-0.95152974,0.20096959,0.22595179,0.05610881,0.24263826,0.25701463,-0.14002605,0.25701461,0.37178058,-0.37422559,-0.14002606,-0.37422552,0.78847873,-0.00350393,0.00760134,0.02513911,0.69494526,0.00000000,0.00000000,0.00000000,0.61448867,0.00000000,0.00000000,-0.00000000,0.64256796,-4.44947815,-0.06242649,-8.64099312,10291009.21005011,0.00000000,0.00000000,0.00000000,7348085.28795838,0.00000000,0.00000000,-0.00000000,9135388.76920938,0.96384878,0.64448856,1.56894472,0.94851283,0.05068757,0.29602985,-0.10060077
2.48034475,-0.95151889,0.20107096,0.22593695,0.05598864,0.24264204,0.25712996,-0.14012491,0.25713000,0.37192516,-0.37430150,-0.14012493,-0.37430161,0.78873278,-0.00087129,0.00657241,0.03326178,0.69494526,0.00000000,0.00000000,0.00000000,0.61448867,0.00000000,0.00000000,-0.00000000,0.64256796,-4.47333908,-0.07222366,-8.63860035,10291009.21005011,0.00000000,0.00000000,0.00000000,7348085.28795838,0.00000000,0.00000000,-0.00000000,9135388.76920938,0.96390708,0.64446473,1.56897594,0.94851916,0.05071481,0.29600363,-0.10060445
2.48528479,-0.95150453,0.20117284,0.22593530,0.05587434,0.24265992,0.25725831,-0.14022486,0.25725827,0.37209586,-0.37439889,-0.14022487,-0.37439885,0.78896986,0.00071378,0.00764073,0.03272771,0.69494526,0.00000000,0.00000000,0.00000000,0.61448867,0.00000000,0.00000000,-0.00000000,0.64256796,-4.47095299,-0.09129128,-8.62668228,10291009.21005011,0.00000000,0.00000000,0.00000000,7348085.28795838,0.00000000,0.00000000,-0.00000000,9135388.76920938,0.96396595,0.64443966,1.56900533,0.94852485,0.05073777,0.29597794,-0.10061483
2.50010488,-0.95144773,0.20145230,0.22600190,0.05556305,0.24274892,0.25766094,-0.14053028,0.25766096,0.37267714,-0.37475991,-0.14053030,-0.37475991,0.78956462,0.00336735,0.00924839,0.02624041,0.69494526,0.00000000,0.00000000,0.00000000,0.61448867,0.00000000,0.00000000,-0.00000000,0.64256796,-4.43988085,-0.16495422,-8.58617973,10291009.21005011,0.00000000,0.00000000,0.00000000,7348085.28795838,0.00000000,0.00000000,-0.00000000,9135388.76920938,0.96420480,0.64432803,1.56910395,0.94853869,0.05077987,0.29589138,-0.10071765
2.51492498,-0.95137727,0.20164497,0.22616576,0.05540459,0.24293777,0.25803671,-0.14076017,0.25803671,0.37329011,-0.37519769,-0.14076016,-0.37519769,0.78984457,0.00607133,0.00875878,0.01001315,0.69494526,0.00000000,0.00000000,0.00000000,0.61448867,0.00000000,0.00000000,-0.00000000,0.64256796,-4.38264132,-0.22401448,-8.63163662,10291009.21005011,0.00000000,0.00000000,0.00000000,7348085.28795838,0.00000000,0.00000000,-0.00000000,9135388.76920938,0.96439328,0.64422949,1.56916098,0.94853918,0.05076393,0.29585074,-0.10084038
2.51986475,-0.95135564,0.20166877,0.22623610,0.05540163,0.24300715,0.25812602,-0.14080333,0.25812602,0.37345710,-0.37532714,-0.14080333,-0.37532710,0.78983889,0.00982666,0.00406697,0.00459986,0.69494526,0.00000000,0.00000000,0.00000000,0.61448867,0.00000000,0.00000000,-0.00000000,0.64256796,-4.38979959,-0.23124948,-8.63641453,10291009.21005011,0.00000000,0.00000000,0.00000000,7348085.28795838,0.00000000,0.00000000,-0.00000000,9135388.76920938,0.96440711,0.64422191,1.56916455,0.94853887,0.05076152,0.29584895,-0.10084981
2.52727493,-0.95132482,0.20166533,0.22634864,0.05548388,0.24315669,0.25822617,-0.14080325,0.25822616,0.37367839,-0.37552758,-0.14080328,-0.37552765,0.78970778,0.01253801,-0.00115924,-0.00514725,0.69494526,0.00000000,0.00000000,0.00000000,0.61448867,0.00000000,0.00000000,-0.00000000,0.64256796,-4.40411615,-0.22901338,-8.64595318,10291009.21005011,0.00000000,0.00000000,0.00000000,7348085.28795838,0.00000000,0.00000000,-0.00000000,9135388.76920938,0.96446889,0.64418749,1.56917959,0.94853686,0.05074950,0.29584327,-0.10089136
2.53221496,-0.95131248,0.20163983,0.22639982,0.05557941,0.24325712,0.25825028,-0.14076137,0.25825028,0.37376140,-0.37563026,-0.14076134,-0.37563026,0.78957868,0.01146214,0.00251266,-0.00947498,0.69494526,0.00000000,0.00000000,0.00000000,0.61448867,0.00000000,0.00000000,-0.00000000,0.64256796,-4.40167665,-0.22899313,-8.67698860,10291009.21005011,0.00000000,0.00000000,0.00000000,7348085.28795838,0.00000000,0.00000000,-0.00000000,9135388.76920938,0.96473527,0.64402813,1.56923218,0.94851744,0.05069070,0.29586762,-0.10103206
2.53715499,-0.95130593,0.20160192,0.22643106,0.05570260,0.24336134,0.25824752,-0.14069022,0.25824747,0.37379454,-0.37569949,-0.14069021,-0.37569952,0.78943115,0.01624156,0.00361623,-0.01487078,0.69494526,0.00000000,0.00000000,0.00000000,0.61448867,0.00000000,0.00000000,-0.00000000,0.64256796,-4.39690495,-0.21462345,-8.69130325,10291009.21005011,0.00000000,0.00000000,0.00000000,7348085.28795838,0.00000000,0.00000000,-0.00000000,9135388.76920938,0.96473636,0.64402745,1.56923237,0.94851732,0.05069047,0.29586789,-0.10103244
2.54209477,-0.95130181,0.20155376,0.22645810,0.05583566,0.24346024,0.25822491,-0.14061043,0.25822493,0.37379170,-0.37574738,-0.14061045,-0.37574742,0.78927046,0.01733252,0.00152604,-0.01702889,0.69494526,0.00000000,0.00000000,0.00000000,0.61448867,0.00000000,0.00000000,-0.00000000,0.64256796,-4.41132736,-0.19328502,-8.68412018,10291009.21005011,0.00000000,0.00000000,0.00000000,7348085.28795838,0.00000000,0.00000000,-0.00000000,9135388.76920938,0.96473708,0.64402699,1.56923249,0.94851725,0.05069032,0.29586807,-0.10103269
2.54703480,-0.95130157,0.20149849,0.22647734,0.05596148,0.24353626,0.25818423,-0.14053252,0.25818420,0.37375714,-0.37577329,-0.14053248,-0.37577329,0.78911448,0.01467576,0.00412994,-0.02027690,0.69494526,0.00000000,0.00000000,0.00000000,0.61448867,0.00000000,0.00000000,-0.00000000,0.64256796,-4.43518782,-0.16251022,-8.66258812,10291009.21005011,0.00000000,0.00000000,0.00000000,7348085.28795838,0.00000000,0.00000000,-0.00000000,9135388.76920938,0.96473755,0.64402669,1.56923257,0.94851720,0.05069023,0.29586819,-0.10103285
2.55197483,-0.95129496,0.20144676,0.22652198,0.05608038,0.24362221,0.25815864,-0.14047193,0.25815866,0.37375008,-0.37582108,-0.14047196,-0.37582115,0.78895006,0.01416588,-0.00060975,-0.01812774,0.69494526,0.00000000,0.00000000,0.00000000,0.61448867,0.00000000,0.00000000,-0.00000000,0.64256796,-4.46379471,-0.12224165,-8.66014099,10291009.21005011,0.00000000,0.00000000,0.00000000,7348085.28795838,0.00000000,0.00000000,-0.00000000,9135388.76920938,0.96478255,0.64399784,1.56924003,0.94851224,0.05068118,0.29588093,-0.10104662
2.55691487,-0.95128262,0.20140621,0.22659087,0.05615606,0.24368725,0.25815400,-0.14045573,0.25815400,0.37378277,-0.37589855,-0.14045575,-0.37589855,0.78880724,0.01362297,0.00043538,-0.01596184,0.69494526,0.00000000,0.00000000,0.00000000,0.61448867,0.00000000,0.00000000,-0.00000000,0.64256796,-4.49481392,-0.08438234,-8.67679882,10291009.21005011,0.00000000,0.00000000,0.00000000,7348085.28795838,0.00000000,0.00000000,-0.00000000,9135388.76920938,0.96484448,0.64395713,1.56924986,0.94850470,0.05067006,0.29590269,-0.10105926
2.57173496,-0.95122099,0.20142612,0.22682668,0.05617675,0.24386666,0.25833990,-0.14057891,0.25833990,0.37418823,-0.37628763,-0.14057889,-0.37628766,0.78866414,0.00718174,0.00193487,0.00729305,0.69494526,0.00000000,0.00000000,0.00000000,0.61448867,0.00000000,0.00000000,-0.00000000,0.64256796,-4.54966688,-0.05870920,-8.69822598,10291009.21005011,0.00000000,0.00000000,0.00000000,7348085.28795838,0.00000000,0.00000000,-0.00000000,9135388.76920938,0.96502926,0.64382758,1.56927647,0.94848199,0.05065712,0.29597721,-0.10106064
2.58655480,-0.95114356,0.20155908,0.22705105,0.05610456,0.24409662,0.25867709,-0.14076551,0.25867707,0.37480563,-0.37678240,-0.14076548,-0.37678243,0.78874899,0.00713254,0.00719004,0.01488734,0.69494526,0.00000000,0.00000000,0.00000000,0.61448867,0.00000000,0.00000000,-0.00000000,0.64256796,-4.55449200,-0.13989848,-8.63861752,10291009.21005011,0.00000000,0.00000000,0.00000000,7348085.28795838,0.00000000,0.00000000,-0.00000000,9135388.76920938,0.96519460,0.64369888,1.56929680,0.94847074,0.05069102,0.29601522,-0.10103791
2.59149483,-0.95111674,0.20161282,0.22711873,0.05609207,0.24419667,0.25879970,-0.14081661,0.25879973,0.37502259,-0.37695645,-0.14081665,-0.37695642,0.78878701,0.00764653,0.00771900,0.01921966,0.69494526,0.00000000,0.00000000,0.00000000,0.61448867,0.00000000,0.00000000,-0.00000000,0.64256796,-4.55449200,-0.16853751,-8.61715698,10291009.21005011,0.00000000,0.00000000,0.00000000,7348085.28795838,0.00000000,0.00000000,-0.00000000,9135388.76920938,0.96524032,0.64366081,1.56930187,0.94846973,0.05070843,0.29601722,-0.10103280
2.59643487,-0.95109296,0.20166105,0.22717679,0.05608676,0.24429210,0.25891206,-0.14085742,0.25891204,0.37522182,-0.37711739,-0.14085740,-0.37711735,0.78881915,0.00815223,0.01245837,0.01652486,0.69494526,0.00000000,0.00000000,0.00000000,0.61448867,0.00000000,0.00000000,-0.00000000,0.64256796,-4.54730749,-0.18755737,-8.59091473,10291009.21005011,0.00000000,0.00000000,0.00000000,7348085.28795838,0.00000000,0.00000000,-0.00000000,9135388.76920938,0.96529021,0.64361793,1.56930715,0.94846970,0.05073095,0.29601441,-0.10103008
2.60137490,-0.95107132,0.20169644,0.22723392,0.05609499,0.24438396,0.25900838,-0.14088700,0.25900838,0.37539515,-0.37725958,-0.14088699,-0.37725958,0.78882912,0.00923630,0.01142072,0.01057213,0.69494526,0.00000000,0.00000000,0.00000000,0.61448867,0.00000000,0.00000000,-0.00000000,0.64256796,-4.54253531,-0.21375968,-8.56945419,10291009.21005011,0.00000000,0.00000000,0.00000000,7348085.28795838,0.00000000,0.00000000,-0.00000000,9135388.76920938,0.96533891,0.64357469,1.56931211,0.94847045,0.05075564,0.29600748,-0.10103093
2.60631493,-0.95105201,0.20172587,0.22728465,0.05611067,0.24447237,0.25909233,-0.14090807,0.25909233,0.37555130,-0.37739412,-0.14090807,-0.37739412,0.78882995,0.00816110,0.01509209,0.00895705,0.69494526,0.00000000,0.00000000,0.00000000,0.61448867,0.00000000,0.00000000,-0.00000000,0.64256796,-4.51392841,-0.23254895,-8.56949329,10291009.21005011,0.00000000,0.00000000,0.00000000,7348085.28795838,0.00000000,0.00000000,-0.00000000,9135388.76920938,0.96538576,0.64353174,1.56931679,0.94847146,0.05078079,0.29599843,-0.10103529
2.61125496,-0.95103532,0.20175028,0.22732590,0.05613934,0.24456374,0.25916640,-0.14091497,0.25916640,0.37569090,-0.37751620,-0.14091499,-0.37751620,0.78882282,0.01291313,0.01829648,0.00843722,0.69494526,0.00000000,0.00000000,0.00000000,0.61448867,0.00000000,0.00000000,-0.00000000,0.64256796,-4.48052359,-0.23458439,-8.57667828,10291009.21005011,0.00000000,0.00000000,0.00000000,7348085.28795838,0.00000000,0.00000000,-0.00000000,9135388.76920938,0.96543463,0.64348547,1.56932169,0.94847228,0.05080706,0.29598837,-0.10104387
2.61619499,-0.95102102,0.20176421,0.22736217,0.05618418,0.24465598,0.25922415,-0.14090759,0.25922413,0.37579940,-0.37761808,-0.14090756,-0.37761801,0.78879706,0.01400251,0.01568064,0.00301950,0.69494526,0.00000000,0.00000000,0.00000000,0.61448867,0.00000000,0.00000000,-0.00000000,0.64256796,-4.46379471,-0.22486489,-8.57906437,10291009.21005011,0.00000000,0.00000000,0.00000000,7348085.28795838,0.00000000,0.00000000,-0.00000000,9135388.76920938,0.96547934,0.64344177,1.56932629,0.94847228,0.05082975,0.29598045,-0.10105561
2.62113477,-0.95100546,0.20177618,0.22740439,0.05623375,0.24475364,0.25928067,-0.14089966,0.25928067,0.37591039,-0.37772810,-0.14089966,-0.37772807,0.78875931,0.01294911,0.01409160,0.00409493,0.69494526,0.00000000,0.00000000,0.00000000,0.61448867,0.00000000,0.00000000,-0.00000000,0.64256796,-4.46379471,-0.20815878,-8.56949806,10291009.21005011,0.00000000,0.00000000,0.00000000,7348085.28795838,0.00000000,0.00000000,-0.00000000,9135388.76920938,0.96552634,0.64339434,1.56933134,0.94847159,0.05085241,0.29597321,-0.10107198
2.63842475,-0.95093274,0.20184092,0.22759862,0.05644508,0.24519564,0.25954797,-0.14086436,0.25954797,0.37642968,-0.37822270,-0.14086439,-0.37822274,0.78858463,0.01299110,0.00620191,0.00840912,0.69494526,0.00000000,0.00000000,0.00000000,0.61448867,0.00000000,0.00000000,-0.00000000,0.64256796,-4.44237280,-0.24134043,-8.71996212,10291009.21005011,0.00000000,0.00000000,0.00000000,7348085.28795838,0.00000000,0.00000000,-0.00000000,9135388.76920938,0.96565026,0.64326066,1.56934618,0.94847324,0.05092513,0.29593467,-0.10113266
2.64830482,-0.95089900,0.20185351,0.22769344,0.05658588,0.24542637,0.25966384,-0.14081751,0.25966384,0.37667709,-0.37847298,-0.14081747,-0.37847295,0.78845726,0.00980532,0.00827476,0.00298684,0.69494526,0.00000000,0.00000000,0.00000000,0.61448867,0.00000000,0.00000000,-0.00000000,0.64256796,-4.43036318,-0.29134056,-8.75582218,10291009.21005011,0.00000000,0.00000000,0.00000000,7348085.28795838,0.00000000,0.00000000,-0.00000000,9135388.76920938,0.96574890,0.64314350,1.56935980,0.94848896,0.05102596,0.29584562,-0.10119493
2.65324485,-0.95088470,0.20185451,0.22772965,0.05667666,0.24555171,0.25970831,-0.14077412,0.25970831,0.37677624,-0.37858508,-0.14077410,-0.37858515,0.78838259,0.00875193,0.00668571,0.00406227,0.69494526,0.00000000,0.00000000,0.00000000,0.61448867,0.00000000,0.00000000,-0.00000000,0.64256796,-4.43990755,-0.28905430,-8.74148941,10291009.21005011,0.00000000,0.00000000,0.00000000,7348085.28795838,0.00000000,0.00000000,-0.00000000,9135388.76920938,0.96575075,0.64314121,1.56936007,0.94848945,0.05102842,0.29584320,-0.10119617
2.65818488,-0.95087636,0.20184045,0.22775203,0.05677674,0.24565886,0.25972651,-0.14071641,0.25972649,0.37683223,-0.37866449,-0.14071643,-0.37866456,0.78829394,0.01087558,0.00776148,-0.00134546,0.69494526,0.00000000,0.00000000,0.00000000,0.61448867,0.00000000,0.00000000,-0.00000000,0.64256796,-4.44462633,-0.28910932,-8.73193169,10291009.21005011,0.00000000,0.00000000,0.00000000,7348085.28795838,0.00000000,0.00000000,-0.00000000,9135388.76920938,0.96578238,0.64310140,1.56936458,0.94849927,0.05107465,0.29579642,-0.10121753
2.66312491,-0.95086974,0.20181896,0.22777195,0.05688424,0.24576246,0.25973162,-0.14065229,0.25973162,0.37686645,-0.37873181,-0.14065229,-0.37873181,0.78819461,0.00983167,0.00670064,-0.00459822,0.69494526,0.00000000,0.00000000,0.00000000,0.61448867,0.00000000,0.00000000,-0.00000000,0.64256796,-4.43746805,-0.29858041,-8.73194504,10291009.21005011,0.00000000,0.00000000,0.00000000,7348085.28795838,0.00000000,0.00000000,-0.00000000,9135388.76920938,0.96581271,0.64306231,1.56936894,0.94851116,0.05112628,0.29574242,-0.10123787
2.66806495,-0.95086759,0.20178927,0.22777891,0.05699756,0.24585425,0.25971811,-0.14057788,0.25971815,0.37686964,-0.37877624,-0.14057788,-0.37877631,0.78809024,0.01142402,0.00829632,-0.00675007,0.69494526,0.00000000,0.00000000,0.00000000,0.61448867,0.00000000,0.00000000,-0.00000000,0.64256796,-4.42559099,-0.31038305,-8.72480583,10291009.21005011,0.00000000,0.00000000,0.00000000,7348085.28795838,0.00000000,0.00000000,-0.00000000,9135388.76920938,0.96584076,0.64302558,1.56937305,0.94852393,0.05117960,0.29568606,-0.10125593
2.67300498,-0.95087171,0.20174438,0.22777025,0.05712212,0.24592940,0.25967642,-0.14048787,0.25967638,0.37682340,-0.37878414,-0.14048786,-0.37878414,0.78797131,0.01354675,0.01147734,-0.01431281,0.69494526,0.00000000,0.00000000,0.00000000,0.61448867,0.00000000,0.00000000,-0.00000000,0.64256796,-4.42797709,-0.30802155,-8.70808983,10291009.21005011,0.00000000,0.00000000,0.00000000,7348085.28795838,0.00000000,0.00000000,-0.00000000,9135388.76920938,0.96586863,0.64298881,1.56937730,0.94853776,0.05123670,0.29562614,-0.10127242
2.67794475,-0.95087546,0.20169629,0.22776465,0.05725137,0.24600690,0.25962887,-0.14039654,0.25962887,0.37676519,-0.37878508,-0.14039654,-0.37878514,0.78784630,0.01411637,0.00675121,-0.01485768,0.69494526,0.00000000,0.00000000,0.00000000,0.61448867,0.00000000,0.00000000,-0.00000000,0.64256796,-4.43760061,-0.28663540,-8.69613457,10291009.21005011,0.00000000,0.00000000,0.00000000,7348085.28795838,0.00000000,0.00000000,-0.00000000,9135388.76920938,0.96597238,0.64285500,1.56939603,0.94858952,0.05145885,0.29540782,-0.10131201
2.68288479,-0.95087922,0.20165004,0.22775792,0.05737876,0.24608420,0.25958184,-0.14030630,0.25958184,0.37671006,-0.37879166,-0.14030629,-0.37879169,0.78772370,0.01250860,0.00831104,-0.01215226,0.69494526,0.00000000,0.00000000,0.00000000,0.61448867,0.00000000,0.00000000,-0.00000000,0.64256796,-4.45430326,-0.25578535,-8.69370651,10291009.21005011,0.00000000,0.00000000,0.00000000,7348085.28795838,0.00000000,0.00000000,-0.00000000,9135388.76920938,0.96597661,0.64284979,1.56939694,0.94859147,0.05146750,0.29539976,-0.10131292
2.68782482,-0.95088375,0.20160329,0.22775082,0.05749602,0.24614896,0.25953251,-0.14022292,0.25953252,0.37664938,-0.37879166,-0.14022292,-0.37879166,0.78761122,0.00932116,0.00880397,-0.01270557,0.69494526,0.00000000,0.00000000,0.00000000,0.61448867,0.00000000,0.00000000,-0.00000000,0.64256796,-4.47572517,-0.22260369,-8.69843102,10291009.21005011,0.00000000,0.00000000,0.00000000,7348085.28795838,0.00000000,0.00000000,-0.00000000,9135388.76920938,0.96597680,0.64284956,1.56939698,0.94859155,0.05146788,0.29539941,-0.10131295
2.70511480,-0.95087314,0.20153905,0.22776577,0.05783660,0.24645811,0.25950388,-0.14000400,0.25950392,0.37666323,-0.37895120,-0.14000400,-0.37895117,0.78736700,-0.00137436,0.01183698,0.01108028,0.69494526,0.00000000,0.00000000,0.00000000,0.61448867,0.00000000,0.00000000,-0.00000000,0.64256796,-4.55679846,-0.14470398,-8.74366379,10291009.21005011,0.00000000,0.00000000,0.00000000,7348085.28795838,0.00000000,0.00000000,-0.00000000,9135388.76920938,0.96602616,0.64279142,1.56940861,0.94861230,0.05156035,0.29531377,-0.10132137
2.71993490,-0.95082879,0.20165798,0.22781032,0.05797505,0.24681379,0.25972074,-0.13994673,0.25972074,0.37703541,-0.37931635,-0.13994670,-0.37931635,0.78747574,-0.01097642,0.01330628,0.03271381,0.69494526,0.00000000,0.00000000,0.00000000,0.61448867,0.00000000,0.00000000,-0.00000000,0.64256796,-4.54974651,-0.21144351,-8.69121742,10291009.21005011,0.00000000,0.00000000,0.00000000,7348085.28795838,0.00000000,0.00000000,-0.00000000,9135388.76920938,0.96608865,0.64272610,1.56942436,0.94863355,0.05164024,0.29522497,-0.10134045
2.72487493,-0.95081007,0.20172110,0.22782850,0.05799098,0.24693273,0.25982516,-0.13995077,0.25982512,0.37720930,-0.37946748,-0.13995082,-0.37946748,0.78756281,-0.01366697,0.01800984,0.03650653,0.69494526,0.00000000,0.00000000,0.00000000,0.61448867,0.00000000,0.00000000,-0.00000000,0.64256796,-4.54258823,-0.23046094,-8.68407726,10291009.21005011,0.00000000,0.00000000,0.00000000,7348085.28795838,0.00000000,0.00000000,-0.00000000,9135388.76920938,0.96610031,0.64271525,1.56942714,0.94863693,0.05164798,0.29521031,-0.10134758
2.73969477,-0.95074850,0.20192569,0.22790484,0.05798841,0.24726373,0.26016672,-0.14000721,0.26016672,0.37777617,-0.37993943,-0.14000720,-0.37993936,0.78787878,-0.02320335,0.01475390,0.04188359,0.69494526,0.00000000,0.00000000,0.00000000,0.61448867,0.00000000,0.00000000,-0.00000000,0.64256796,-4.45430326,-0.27726462,-8.70327663,10291009.21005011,0.00000000,0.00000000,0.00000000,7348085.28795838,0.00000000,0.00000000,-0.00000000,9135388.76920938,0.96616387,0.64266752,1.56943991,0.94865397,0.05163818,0.29512999,-0.10142700
2.74463480,-0.95073032,0.20199454,0.22791940,0.05798944,0.24737192,0.26027899,-0.14001897,0.26027898,0.37796176,-0.38008980,-0.14001894,-0.38008987,0.78799175,-0.02055843,0.01688599,0.03919040,0.69494526,0.00000000,0.00000000,0.00000000,0.61448867,0.00000000,0.00000000,-0.00000000,0.64256796,-4.43521452,-0.29377007,-8.72001648,10291009.21005011,0.00000000,0.00000000,0.00000000,7348085.28795838,0.00000000,0.00000000,-0.00000000,9135388.76920938,0.96617331,0.64266244,1.56944138,0.94865652,0.05162883,0.29511681,-0.10144624
2.74957483,-0.95071667,0.20205255,0.22792430,0.05799124,0.24746023,0.26036703,-0.14002582,0.26036699,0.37810250,-0.38020806,-0.14002583,-0.38020813,0.78810305,-0.02266392,0.01318256,0.03808387,0.69494526,0.00000000,0.00000000,0.00000000,0.61448867,0.00000000,0.00000000,-0.00000000,0.64256796,-4.41363382,-0.30548695,-8.72480583,10291009.21005011,0.00000000,0.00000000,0.00000000,7348085.28795838,0.00000000,0.00000000,-0.00000000,9135388.76920938,0.96619148,0.64265438,1.56944398,0.94866145,0.05160582,0.29509049,-0.10148836
2.75451487,-0.95070642,0.20209672,0.22792217,0.05801513,0.24755037,0.26043982,-0.14001227,0.26043979,0.37822426,-0.38031227,-0.14001226,-0.38031230,0.78818180,-0.01628326,0.01377802,0.02998530,0.69494526,0.00000000,0.00000000,0.00000000,0.61448867,0.00000000,0.00000000,-0.00000000,0.64256796,-4.38977289,-0.31955555,-8.71289730,10291009.21005011,0.00000000,0.00000000,0.00000000,7348085.28795838,0.00000000,0.00000000,-0.00000000,9135388.76920938,0.96620978,0.64264860,1.56944648,0.94866638,0.05157699,0.29506311,-0.10153658
2.76933496,-0.95070982,0.20213650,0.22784495,0.05812342,0.24769364,0.26047764,-0.13991302,0.26047767,0.37828113,-0.38041363,-0.13991302,-0.38041363,0.78833965,-0.01725659,0.01009671,0.01320740,0.69494526,0.00000000,0.00000000,0.00000000,0.61448867,0.00000000,0.00000000,-0.00000000,0.64256796,-4.32786751,-0.34037066,-8.70819283,10291009.21005011,0.00000000,0.00000000,0.00000000,7348085.28795838,0.00000000,0.00000000,-0.00000000,9135388.76920938,0.96627980,0.64264772,1.56945753,0.94868356,0.05143764,0.29495920,-0.10174839
2.78415480,-0.95076191,0.20206973,0.22765514,0.05824737,0.24764495,0.26029562,-0.13975287,0.26029560,0.37795646,-0.38022708,-0.13975287,-0.38022708,0.78844638,-0.01140751,0.01226716,-0.00356112,0.69494526,0.00000000,0.00000000,0.00000000,0.61448867,0.00000000,0.00000000,-0.00000000,0.64256796,-4.32293606,-0.31885570,-8.79649830,10291009.21005011,0.00000000,0.00000000,0.00000000,7348085.28795838,0.00000000,0.00000000,-0.00000000,9135388.76920938,0.96633937,0.64267280,1.56946968,0.94869593,0.05129828,0.29488606,-0.10191527
2.78909483,-0.95078731,0.20203750,0.22757033,0.05827601,0.24758897,0.26020101,-0.13970053,0.26020099,0.37778050,-0.38011265,-0.13970051,-0.38011269,0.78850165,-0.01670753,0.01221281,-0.00357607,0.69494526,0.00000000,0.00000000,0.00000000,0.61448867,0.00000000,0.00000000,-0.00000000,0.64256796,-4.34918308,-0.31197187,-8.78215027,10291009.21005011,0.00000000,0.00000000,0.00000000,7348085.28795838,0.00000000,0.00000000,-0.00000000,9135388.76920938,0.96634561,0.64267686,1.56947101,0.94869716,0.05128272,0.29487963,-0.10193025
2.80638482,-0.95087457,0.20188703,0.22731328,0.05837769,0.24735956,0.25984848,-0.13952970,0.25984848,0.37715887,-0.37970183,-0.13952969,-0.37970183,0.78861427,-0.01982850,0.00797778,-0.00790946,0.69494526,0.00000000,0.00000000,0.00000000,0.61448867,0.00000000,0.00000000,-0.00000000,0.64256796,-4.38993168,-0.25987643,-8.75344276,10291009.21005011,0.00000000,0.00000000,0.00000000,7348085.28795838,0.00000000,0.00000000,-0.00000000,9135388.76920938,0.96642294,0.64275018,1.56948492,0.94871323,0.05107588,0.29481852,-0.10206131
2.81132485,-0.95090163,0.20184247,0.22723502,0.05839479,0.24727544,0.25973996,-0.13948735,0.25973998,0.37696944,-0.37957438,-0.13948737,-0.37957445,0.78865819,-0.02091818,0.01006798,-0.00520793,0.69494526,0.00000000,0.00000000,0.00000000,0.61448867,0.00000000,0.00000000,-0.00000000,0.64256796,-4.39939690,-0.23134498,-8.76056385,10291009.21005011,0.00000000,0.00000000,0.00000000,7348085.28795838,0.00000000,0.00000000,-0.00000000,9135388.76920938,0.96642401,0.64275148,1.56948506,0.94871347,0.05107287,0.29481789,-0.10206237
2.81626488,-0.95092809,0.20179917,0.22716062,0.05840321,0.24718484,0.25963365,-0.13945290,0.25963368,0.37678119,-0.37944622,-0.13945289,-0.37944622,0.78871020,-0.02514840,0.00844691,-0.00522385,0.69494526,0.00000000,0.00000000,0.00000000,0.61448867,0.00000000,0.00000000,-0.00000000,0.64256796,-4.40178299,-0.20750418,-8.73188877,10291009.21005011,0.00000000,0.00000000,0.00000000,7348085.28795838,0.00000000,0.00000000,-0.00000000,9135388.76920938,0.96644489,0.64277808,1.56948748,0.94871831,0.05101341,0.29480667,-0.10207951
2.82120491,-0.95095307,0.20176741,0.22708346,0.05840627,0.24710349,0.25954151,-0.13942143,0.25954151,0.37661676,-0.37933366,-0.13942141,-0.37933363,0.78878126,-0.02465801,0.01107783,0.00073285,0.69494526,0.00000000,0.00000000,0.00000000,0.61448867,0.00000000,0.00000000,-0.00000000,0.64256796,-4.39695787,-0.17404668,-8.69365597,10291009.21005011,0.00000000,0.00000000,0.00000000,7348085.28795838,0.00000000,0.00000000,-0.00000000,9135388.76920938,0.96646551,0.64280621,1.56948934,0.94872327,0.05095413,0.29479711,-0.10209062
2.83602475,-0.95102161,0.20170748,0.22685230,0.05839658,0.24688868,0.25931236,-0.13934209,0.25931237,0.37618176,-0.37902777,-0.13934211,-0.37902777,0.78905686,-0.02465665,0.00844533,0.00776617,0.69494526,0.00000000,0.00000000,0.00000000,0.61448867,0.00000000,0.00000000,-0.00000000,0.64256796,-4.37553596,-0.14995021,-8.61247444,10291009.21005011,0.00000000,0.00000000,0.00000000,7348085.28795838,0.00000000,0.00000000,-0.00000000,9135388.76920938,0.96657330,0.64296429,1.56949284,0.94875075,0.05064985,0.29475830,-0.10209873
2.85578488,-0.95110482,0.20169924,0.22652787,0.05832816,0.24663570,0.25908935,-0.13927478,0.25908939,0.37570600,-0.37868111,-0.13927475,-0.37868115,0.78956171,-0.02732465,0.00946756,0.01263426,0.69494526,0.00000000,0.00000000,0.00000000,0.61448867,0.00000000,0.00000000,-0.00000000,0.64256796,-4.33738518,-0.15670624,-8.68890858,10291009.21005011,0.00000000,0.00000000,0.00000000,7348085.28795838,0.00000000,0.00000000,-0.00000000,9135388.76920938,0.96664838,0.64307214,1.56949095,0.94877118,0.05045467,0.29472773,-0.10209372
2.86072491,-0.95112574,0.20170681,0.22644076,0.05829902,0.24656980,0.25904284,-0.13926477,0.25904284,0.37559584,-0.37859364,-0.13926476,-0.37859360,0.78971284,-0.02520950,0.01001487,0.01318275,0.69494526,0.00000000,0.00000000,0.00000000,0.61448867,0.00000000,0.00000000,-0.00000000,0.64256796,-4.35170174,-0.15447015,-8.64592171,10291009.21005011,0.00000000,0.00000000,0.00000000,7348085.28795838,0.00000000,0.00000000,-0.00000000,9135388.76920938,0.96667679,0.64311248,1.56948870,0.94877997,0.05038704,0.29471104,-0.10209363
2.87060498,-0.95116979,0.20171760,0.22626486,0.05822562,0.24641302,0.25893936,-0.13925482,0.25893933,0.37535422,-0.37839856,-0.13925480,-0.37839863,0.79002680,-0.02573448,0.00790561,0.01100006,0.69494526,0.00000000,0.00000000,0.00000000,0.61448867,0.00000000,0.00000000,-0.00000000,0.64256796,-4.33725262,-0.16626465,-8.61966801,10291009.21005011,0.00000000,0.00000000,0.00000000,7348085.28795838,0.00000000,0.00000000,-0.00000000,9135388.76920938,0.96677374,0.64324991,1.56947140,0.94881594,0.05018791,0.29462535,-0.10210480
2.87554475,-0.95119387,0.20171840,0.22617283,0.05818722,0.24632393,0.25887897,-0.13924908,0.25887893,0.37522127,-0.37829224,-0.13924906,-0.37829221,0.79018139,-0.02627671,0.01105627,0.01046976,0.69494526,0.00000000,0.00000000,0.00000000,0.61448867,0.00000000,0.00000000,-0.00000000,0.64256796,-4.32060337,-0.17801718,-8.60059357,10291009.21005011,0.00000000,0.00000000,0.00000000,7348085.28795838,0.00000000,0.00000000,-0.00000000,9135388.76920938,0.96677496,0.64325164,1.56947108,0.94881643,0.05018567,0.29462407,-0.10210503
2.88048479,-0.95121872,0.20171642,0.22607906,0.05815238,0.24623415,0.25881457,-0.13923985,0.25881457,0.37507921,-0.37817671,-0.13923992,-0.37817678,0.79033232,-0.02467220,0.01002231,0.00776566,0.69494526,0.00000000,0.00000000,0.00000000,0.61448867,0.00000000,0.00000000,-0.00000000,0.64256796,-4.31344509,-0.17316876,-8.56716824,10291009.21005011,0.00000000,0.00000000,0.00000000,7348085.28795838,0.00000000,0.00000000,-0.00000000,9135388.76920938,0.96681027,0.64330121,1.56946045,0.94883055,0.05012362,0.29458668,-0.10211221
2.88542482,-0.95124358,0.20171018,0.22598644,0.05812701,0.24614996,0.25874744,-0.13922404,0.25874742,0.37493501,-0.37806025,-0.13922406,-0.37806018,0.79046980,-0.02146450,0.00847972,0.00561485,0.69494526,0.00000000,0.00000000,0.00000000,0.61448867,0.00000000,0.00000000,-0.00000000,0.64256796,-4.31832314,-0.15650316,-8.53134632,10291009.21005011,0.00000000,0.00000000,0.00000000,7348085.28795838,0.00000000,0.00000000,-0.00000000,9135388.76920938,0.96684407,0.64334817,1.56944795,0.94884385,0.05006824,0.29455061,-0.10211979
2.89283499,-0.95128018,0.20168318,0.22585881,0.05811829,0.24603766,0.25863430,-0.13918286,0.25863430,0.37470814,-0.37788557,-0.13918284,-0.37788557,0.79061913,-0.01719382,0.00589651,0.00074951,0.69494526,0.00000000,0.00000000,0.00000000,0.61448867,0.00000000,0.00000000,-0.00000000,0.64256796,-4.31355095,-0.13736030,-8.46925545,10291009.21005011,0.00000000,0.00000000,0.00000000,7348085.28795838,0.00000000,0.00000000,-0.00000000,9135388.76920938,0.96687930,0.64339644,1.56943261,0.94885726,0.05001449,0.29451378,-0.10212777
2.90271480,-0.95132172,0.20162398,0.22571985,0.05818312,0.24595887,0.25848277,-0.13908454,0.25848275,0.37442573,-0.37769015,-0.13908453,-0.37769015,0.79070197,-0.01186416,0.00121945,-0.00521388,0.69494526,0.00000000,0.00000000,0.00000000,0.61448867,0.00000000,0.00000000,-0.00000000,0.64256796,-4.29191732,-0.15624176,-8.46927261,10291009.21005011,0.00000000,0.00000000,0.00000000,7348085.28795838,0.00000000,0.00000000,-0.00000000,9135388.76920938,0.96698855,0.64354015,1.56937242,0.94889466,0.04987372,0.29441090,-0.10214575
2.92247493,-0.95140219,0.20143066,0.22549252,0.05841801,0.24584074,0.25811902,-0.13883165,0.25811902,0.37381830,-0.37732451,-0.13883167,-0.37732451,0.79063070,-0.00809350,-0.00346999,-0.01386984,0.69494526,0.00000000,0.00000000,0.00000000,0.61448867,0.00000000,0.00000000,-0.00000000,0.64256796,-4.31344509,-0.19464804,-8.54092693,10291009.21005011,0.00000000,0.00000000,0.00000000,7348085.28795838,0.00000000,0.00000000,-0.00000000,9135388.76920938,0.96711344,0.64369332,1.56928358,0.94892719,0.04975700,0.29432762,-0.10214049
2.92741496,-0.95142561,0.20138220,0.22542433,0.05846696,0.24579469,0.25801946,-0.13877197,0.25801946,0.37364940,-0.37721809,-0.13877198,-0.37721809,0.79062426,-0.00331811,-0.00289428,-0.01384837,0.69494526,0.00000000,0.00000000,0.00000000,0.61448867,0.00000000,0.00000000,-0.00000000,0.64256796,-4.31829691,-0.20901050,-8.55288219,10291009.21005011,0.00000000,0.00000000,0.00000000,7348085.28795838,0.00000000,0.00000000,-0.00000000,9135388.76920938,0.96715118,0.64373835,1.56925195,0.94893429,0.04972954,0.29431239,-0.10213182
2.93729477,-0.95147383,0.20127329,0.22529626,0.05855076,0.24567289,0.25780404,-0.13866586,0.25780407,0.37327868,-0.37697457,-0.13866587,-0.37697453,0.79061144,-0.00965291,-0.00769260,-0.01442383,0.69494526,0.00000000,0.00000000,0.00000000,0.61448867,0.00000000,0.00000000,-0.00000000,0.64256796,-4.34687710,-0.20931630,-8.53853512,10291009.21005011,0.00000000,0.00000000,0.00000000,7348085.28795838,0.00000000,0.00000000,-0.00000000,9135388.76920938,0.96727502,0.64388514,1.56912910,0.94894692,0.04965542,0.29430233,-0.10207950
2.94223480,-0.95149130,0.20121872,0.22525834,0.05860087,0.24563407,0.25771417,-0.13861725,0.25771415,0.37313337,-0.37688602,-0.13861725,-0.37688602,0.79057882,-0.01013561,-0.01505984,-0.01498498,0.69494526,0.00000000,0.00000000,0.00000000,0.61448867,0.00000000,0.00000000,-0.00000000,0.64256796,-4.36357927,-0.18323943,-8.55759907,10291009.21005011,0.00000000,0.00000000,0.00000000,7348085.28795838,0.00000000,0.00000000,-0.00000000,9135388.76920938,0.96727657,0.64388698,1.56912736,0.94894697,0.04965455,0.29430262,-0.10207865
2.94717483,-0.95150989,0.20117995,0.22521119,0.05861307,0.24557000,0.25762834,-0.13859604,0.25762837,0.37299190,-0.37680706,-0.13859607,-0.37680713,0.79059205,-0.00962929,-0.01453207,-0.00903133,0.69494526,0.00000000,0.00000000,0.00000000,0.61448867,0.00000000,0.00000000,-0.00000000,0.64256796,-4.37786913,-0.16907284,-8.59816170,10291009.21005011,0.00000000,0.00000000,0.00000000,7348085.28795838,0.00000000,0.00000000,-0.00000000,9135388.76920938,0.96731951,0.64393798,1.56907698,0.94894719,0.04963012,0.29431482,-0.10205329
2.95211487,-0.95152146,0.20116884,0.22519581,0.05852275,0.24544332,0.25757445,-0.13866893,0.25757445,0.37288053,-0.37673028,-0.13866894,-0.37673035,0.79069844,-0.01441540,-0.01353101,-0.00579501,0.69494526,0.00000000,0.00000000,0.00000000,0.61448867,0.00000000,0.00000000,-0.00000000,0.64256796,-4.39695787,-0.15734056,-8.65543938,10291009.21005011,0.00000000,0.00000000,0.00000000,7348085.28795838,0.00000000,0.00000000,-0.00000000,9135388.76920938,0.96736181,0.64398845,1.56902315,0.94894522,0.04960456,0.29433506,-0.10202565
2.95705490,-0.95152766,0.20117335,0.22519229,0.05841852,0.24532963,0.25756865,-0.13875361,0.25756867,0.37286827,-0.37670251,-0.13875363,-0.37670247,0.79081293,-0.01759093,-0.01566909,-0.00093409,0.69494526,0.00000000,0.00000000,0.00000000,0.61448867,0.00000000,0.00000000,-0.00000000,0.64256796,-4.39939690,-0.13349493,-8.71988201,10291009.21005011,0.00000000,0.00000000,0.00000000,7348085.28795838,0.00000000,0.00000000,-0.00000000,9135388.76920938,0.96740347,0.64403814,1.56896649,0.94894119,0.04957733,0.29436248,-0.10199719
2.97187499,-0.95154363,0.20121923,0.22517467,0.05806724,0.24498442,0.25757923,-0.13903098,0.25757923,0.37286262,-0.37663664,-0.13903099,-0.37663664,0.79125246,-0.02556714,-0.01786083,0.01039870,0.69494526,0.00000000,0.00000000,0.00000000,0.61448867,0.00000000,0.00000000,-0.00000000,0.64256796,-4.40173006,-0.13352485,-8.78433895,10291009.21005011,0.00000000,0.00000000,0.00000000,7348085.28795838,0.00000000,0.00000000,-0.00000000,9135388.76920938,0.96754735,0.64420624,1.56875105,0.94891312,0.04946253,0.29450284,-0.10190893
2.98916498,-0.95154345,0.20137729,0.22514376,0.05764149,0.24470693,0.25772409,-0.13936222,0.25772409,0.37304485,-0.37669658,-0.13936218,-0.37669658,0.79193435,-0.03620686,-0.01902973,0.02606063,0.69494526,0.00000000,0.00000000,0.00000000,0.61448867,0.00000000,0.00000000,-0.00000000,0.64256796,-4.41366053,-0.16467589,-8.78436184,10291009.21005011,0.00000000,0.00000000,0.00000000,7348085.28795838,0.00000000,0.00000000,-0.00000000,9135388.76920938,0.96771895,0.64439620,1.56847280,0.94885993,0.04927681,0.29472163,-0.10186166
2.99410475,-0.95154482,0.20142527,0.22512636,0.05751935,0.24462672,0.25776633,-0.13945250,0.25776633,0.37309586,-0.37670853,-0.13945248,-0.37670853,0.79214269,-0.03355853,-0.01847640,0.02552824,0.69494526,0.00000000,0.00000000,0.00000000,0.61448867,0.00000000,0.00000000,-0.00000000,0.64256796,-4.41604662,-0.19334002,-8.75096226,10291009.21005011,0.00000000,0.00000000,0.00000000,7348085.28795838,0.00000000,0.00000000,-0.00000000,9135388.76920938,0.96772935,0.64440737,1.56845558,0.94885631,0.04926377,0.29473550,-0.10186153
3.00892485,-0.95156127,0.20151010,0.22506694,0.05718105,0.24432903,0.25780984,-0.13969524,0.25780982,0.37312512,-0.37666344,-0.13969521,-0.37666344,0.79268584,-0.03670258,-0.01797639,0.01416010,0.69494526,0.00000000,0.00000000,0.00000000,0.61448867,0.00000000,0.00000000,-0.00000000,0.64256796,-4.45666265,-0.22240062,-8.71038342,10291009.21005011,0.00000000,0.00000000,0.00000000,7348085.28795838,0.00000000,0.00000000,-0.00000000,9135388.76920938,0.96789565,0.64458352,1.56817487,0.94880036,0.04903998,0.29493915,-0.10190115
3.01386488,-0.95157284,0.20151757,0.22503655,0.05708168,0.24420945,0.25779027,-0.13975998,0.25779024,0.37308468,-0.37661634,-0.13975995,-0.37661631,0.79284036,-0.03937400,-0.01326933,0.01145856,0.69494526,0.00000000,0.00000000,0.00000000,0.61448867,0.00000000,0.00000000,-0.00000000,0.64256796,-4.44234610,-0.21031716,-8.72709179,10291009.21005011,0.00000000,0.00000000,0.00000000,7348085.28795838,0.00000000,0.00000000,-0.00000000,9135388.76920938,0.96792005,0.64460937,1.56813248,0.94879326,0.04900623,0.29496357,-0.10191287
3.01880491,-0.95158607,0.20151789,0.22500333,0.05699128,0.24408855,0.25776018,-0.13981650,0.25776021,0.37302674,-0.37655532,-0.13981650,-0.37655536,0.79298415,-0.03724594,-0.01377257,0.00983965,0.69494526,0.00000000,0.00000000,0.00000000,0.61448867,0.00000000,0.00000000,-0.00000000,0.64256796,-4.43757391,-0.19117433,-8.73423958,10291009.21005011,0.00000000,0.00000000,0.00000000,7348085.28795838,0.00000000,0.00000000,-0.00000000,9135388.76920938,0.96796991,0.64466240,1.56804483,0.94877976,0.04893641,0.29500909,-0.10194032
3.02374495,-0.95160127,0.20151339,0.22496416,0.05690703,0.24396468,0.25771980,-0.13986558,0.25771980,0.37295114,-0.37648430,-0.13986559,-0.37648430,0.79312233,-0.03830937,-0.01220468,0.00767586,0.69494526,0.00000000,0.00000000,0.00000000,0.61448867,0.00000000,0.00000000,-0.00000000,0.64256796,-4.46382093,-0.15565144,-8.72463894,10291009.21005011,0.00000000,0.00000000,0.00000000,7348085.28795838,0.00000000,0.00000000,-0.00000000,9135388.76920938,0.96801787,0.64471373,1.56795925,0.94876790,0.04886733,0.29504837,-0.10197019
3.03856479,-0.95158911,0.20150998,0.22509560,0.05660220,0.24367155,0.25773853,-0.14016381,0.25773850,0.37301881,-0.37652049,-0.14016381,-0.37652055,0.79340083,-0.04046878,-0.00644278,0.00985138,0.69494526,0.00000000,0.00000000,0.00000000,0.61448867,0.00000000,0.00000000,-0.00000000,0.64256796,-4.53065777,-0.07043423,-8.70303154,10291009.21005011,0.00000000,0.00000000,0.00000000,7348085.28795838,0.00000000,0.00000000,-0.00000000,9135388.76920938,0.96820168,0.64491438,1.56762138,0.94872958,0.04857139,0.29517654,-0.10209708
3.05832491,-0.95149040,0.20164442,0.22555439,0.05595296,0.24334754,0.25812761,-0.14086959,0.25812760,0.37383870,-0.37709865,-0.14086958,-0.37709865,0.79383067,-0.04687971,-0.00756916,0.02443173,0.69494526,0.00000000,0.00000000,0.00000000,0.61448867,0.00000000,0.00000000,-0.00000000,0.64256796,-4.55915785,0.01755641,-8.65039158,10291009.21005011,0.00000000,0.00000000,0.00000000,7348085.28795838,0.00000000,0.00000000,-0.00000000,9135388.76920938,0.96835772,0.64508872,1.56732869,0.94870422,0.04828128,0.29526831,-0.10220488
3.06326495,-0.95146102,0.20170289,0.22567001,0.05577558,0.24328635,0.25825964,-0.14105892,0.25825966,0.37409258,-0.37726952,-0.14105893,-0.37726955,0.79398090,-0.04369106,-0.00964169,0.02985624,0.69494526,0.00000000,0.00000000,0.00000000,0.61448867,0.00000000,0.00000000,-0.00000000,0.64256796,-4.56165028,0.01038124,-8.65756989,10291009.21005011,0.00000000,0.00000000,0.00000000,7348085.28795838,0.00000000,0.00000000,-0.00000000,9135388.76920938,0.96839691,0.64513327,1.56725424,0.94869876,0.04820290,0.29528940,-0.10223166
3.07808479,-0.95136476,0.20190582,0.22603150,0.05521655,0.24312012,0.25870152,-0.14165407,0.25870152,0.37492601,-0.37783639,-0.14165407,-0.37783639,0.79447654,-0.04634585,-0.00966974,0.03147233,0.69494526,0.00000000,0.00000000,0.00000000,0.61448867,0.00000000,0.00000000,-0.00000000,0.64256796,-4.49483967,-0.02471525,-8.73165607,10291009.21005011,0.00000000,0.00000000,0.00000000,7348085.28795838,0.00000000,0.00000000,-0.00000000,9135388.76920938,0.96853672,0.64529872,1.56697653,0.94868140,0.04789547,0.29536060,-0.10233150
3.08549496,-0.95132232,0.20198192,0.22620495,0.05495876,0.24302324,0.25889007,-0.14193182,0.25889005,0.37529275,-0.37808214,-0.14193179,-0.37808203,0.79467989,-0.04261920,-0.01015467,0.02498274,0.69494526,0.00000000,0.00000000,0.00000000,0.61448867,0.00000000,0.00000000,-0.00000000,0.64256796,-4.47331238,-0.07222608,-8.69112396,10291009.21005011,0.00000000,0.00000000,0.00000000,7348085.28795838,0.00000000,0.00000000,-0.00000000,9135388.76920938,0.96856464,0.64533362,1.56691722,0.94867811,0.04782668,0.29537493,-0.10235281
3.09043499,-0.95129681,0.20201294,0.22632106,0.05480835,0.24295546,0.25899548,-0.14210025,0.25899550,0.37551047,-0.37822765,-0.14210025,-0.37822762,0.79477062,-0.03568745,-0.00955078,0.01364747,0.69494526,0.00000000,0.00000000,0.00000000,0.61448867,0.00000000,0.00000000,-0.00000000,0.64256796,-4.44001341,-0.09334454,-8.67684937,10291009.21005011,0.00000000,0.00000000,0.00000000,7348085.28795838,0.00000000,0.00000000,-0.00000000,9135388.76920938,0.96859990,0.64537896,1.56683946,0.94867385,0.04773470,0.29539389,-0.10238056
3.10525483,-0.95124191,0.20200336,0.22664253,0.05446744,0.24271949,0.25916703,-0.14251125,0.25916701,0.37594322,-0.37852881,-0.14251128,-0.37852884,0.79483635,-0.01706340,-0.00724158,-0.01389109,0.69494526,0.00000000,0.00000000,0.00000000,0.61448867,0.00000000,0.00000000,-0.00000000,0.64256796,-4.41143322,-0.09542529,-8.67209816,10291009.21005011,0.00000000,0.00000000,0.00000000,7348085.28795838,0.00000000,0.00000000,-0.00000000,9135388.76920938,0.96872177,0.64554892,1.56653705,0.94865689,0.04736391,0.29547448,-0.10247729
3.12501496,-0.95121527,0.20176217,0.22701909,0.05425775,0.24233436,0.25907709,-0.14285386,0.25907713,0.37603451,-0.37863031,-0.14285385,-0.37863034,0.79445638,0.00528475,-0.01226091,-0.03658035,0.69494526,0.00000000,0.00000000,0.00000000,0.61448867,0.00000000,0.00000000,-0.00000000,0.64256796,-4.43757391,0.01884529,-8.66957569,10291009.21005011,0.00000000,0.00000000,0.00000000,7348085.28795838,0.00000000,0.00000000,-0.00000000,9135388.76920938,0.96882983,0.64570719,1.56623002,0.94864299,0.04701703,0.29556675,-0.10249965
3.12995499,-0.95120996,0.20170194,0.22710374,0.05421983,0.24225088,0.25904568,-0.14292748,0.25904565,0.37603558,-0.37864842,-0.14292743,-0.37864842,0.79435325,0.00156859,-0.01387947,-0.03118288,0.69494526,0.00000000,0.00000000,0.00000000,0.61448867,0.00000000,0.00000000,-0.00000000,0.64256796,-4.45189047,0.04256067,-8.71729279,10291009.21005011,0.00000000,0.00000000,0.00000000,7348085.28795838,0.00000000,0.00000000,-0.00000000,9135388.76920938,0.96883035,0.64570793,1.56622848,0.94864294,0.04701553,0.29556724,-0.10249938
3.13489477,-0.95120728,0.20164622,0.22717331,0.05418300,0.24216782,0.25901650,-0.14299357,0.25901650,0.37603645,-0.37865888,-0.14299357,-0.37865881,0.79426287,0.00684804,-0.01066968,-0.03278805,0.69494526,0.00000000,0.00000000,0.00000000,0.61448867,0.00000000,0.00000000,-0.00000000,0.64256796,-4.45660973,0.06637153,-8.77695084,10291009.21005011,0.00000000,0.00000000,0.00000000,7348085.28795838,0.00000000,0.00000000,-0.00000000,9135388.76920938,0.96884525,0.64572851,1.56618537,0.94864174,0.04697518,0.29558089,-0.10248957
3.13983480,-0.95120579,0.20160200,0.22723182,0.05412879,0.24207587,0.25898896,-0.14306911,0.25898896,0.37602990,-0.37866310,-0.14306913,-0.37866310,0.79421223,0.00362932,-0.00755061,-0.02629484,0.69494526,0.00000000,0.00000000,0.00000000,0.61448867,0.00000000,0.00000000,-0.00000000,0.64256796,-4.46376801,0.07822921,-8.80797291,10291009.21005011,0.00000000,0.00000000,0.00000000,7348085.28795838,0.00000000,0.00000000,-0.00000000,9135388.76920938,0.96886881,0.64575975,1.56611755,0.94864025,0.04691874,0.29560306,-0.10246534
3.14477483,-0.95120442,0.20156991,0.22727902,0.05407370,0.24199506,0.25897251,-0.14314109,0.25897252,0.37603008,-0.37866338,-0.14314110,-0.37866338,0.79418834,0.00680676,-0.00962410,-0.02196388,0.69494526,0.00000000,0.00000000,0.00000000,0.61448867,0.00000000,0.00000000,-0.00000000,0.64256796,-4.47089958,0.07815155,-8.78886509,10291009.21005011,0.00000000,0.00000000,0.00000000,7348085.28795838,0.00000000,0.00000000,-0.00000000,9135388.76920938,0.96889080,0.64578726,1.56605443,0.94863902,0.04687430,0.29562506,-0.10243359
3.15218475,-0.95119178,0.20155963,0.22735968,0.05399428,0.24193759,0.25900686,-0.14325429,0.25900682,0.37611842,-0.37873067,-0.14325431,-0.37873070,0.79418785,0.00997121,-0.01222666,-0.01113774,0.69494526,0.00000000,0.00000000,0.00000000,0.61448867,0.00000000,0.00000000,-0.00000000,0.64256796,-4.48044395,0.08759756,-8.73632526,10291009.21005011,0.00000000,0.00000000,0.00000000,7348085.28795838,0.00000000,0.00000000,-0.00000000,9135388.76920938,0.96890999,0.64580976,1.56599929,0.94863779,0.04684210,0.29564602,-0.10239917
3.15712479,-0.95118195,0.20156732,0.22741106,0.05392303,0.24189773,0.25904419,-0.14334276,0.25904423,0.37619551,-0.37878868,-0.14334281,-0.37878864,0.79422262,0.00412493,-0.00965821,-0.00626572,0.69494526,0.00000000,0.00000000,0.00000000,0.61448867,0.00000000,0.00000000,-0.00000000,0.64256796,-4.47341824,0.08768490,-8.74827957,10291009.21005011,0.00000000,0.00000000,0.00000000,7348085.28795838,0.00000000,0.00000000,-0.00000000,9135388.76920938,0.96892941,0.64583087,1.56594309,0.94863608,0.04681581,0.29566977,-0.10235842
3.17194488,-0.95113975,0.20168206,0.22754554,0.05367069,0.24185686,0.25926955,-0.14363267,0.25926954,0.37658078,-0.37905146,-0.14363268,-0.37905146,0.79449136,0.00508968,-0.00597890,0.01538734,0.69494526,0.00000000,0.00000000,0.00000000,0.61448867,0.00000000,0.00000000,-0.00000000,0.64256796,-4.43754768,0.04986849,-8.78891754,10291009.21005011,0.00000000,0.00000000,0.00000000,7348085.28795838,0.00000000,0.00000000,-0.00000000,9135388.76920938,0.96899883,0.64588457,1.56574530,0.94862254,0.04677252,0.29577713,-0.10219342
3.18676498,-0.95108110,0.20189644,0.22766198,0.05340991,0.24194221,0.25962669,-0.14392722,0.25962665,0.37713854,-0.37942706,-0.14392722,-0.37942706,0.79490624,0.00719913,-0.00543329,0.02081322,0.69494526,0.00000000,0.00000000,0.00000000,0.61448867,0.00000000,0.00000000,-0.00000000,0.64256796,-4.38990545,-0.01406043,-8.75559139,10291009.21005011,0.00000000,0.00000000,0.00000000,7348085.28795838,0.00000000,0.00000000,-0.00000000,9135388.76920938,0.96905223,0.64589222,1.56561567,0.94860238,0.04677934,0.29586980,-0.10210917
3.20652485,-0.95102489,0.20212312,0.22774795,0.05318541,0.24207902,0.26000891,-0.14419812,0.26000889,0.37771086,-0.37980295,-0.14419812,-0.37980295,0.79532818,0.02371968,-0.00945948,-0.00296775,0.69494526,0.00000000,0.00000000,0.00000000,0.61448867,0.00000000,0.00000000,-0.00000000,0.64256796,-4.35167503,-0.14731281,-8.80110073,10291009.21005011,0.00000000,0.00000000,0.00000000,7348085.28795838,0.00000000,0.00000000,-0.00000000,9135388.76920938,0.96911349,0.64586616,1.56550864,0.94857241,0.04681932,0.29596758,-0.10208588
3.21146488,-0.95102537,0.20214121,0.22773384,0.05316859,0.24208456,0.26003533,-0.14421975,0.26003535,0.37773880,-0.37981514,-0.14421974,-0.37981517,0.79537965,0.03009062,-0.00781287,-0.00998131,0.69494526,0.00000000,0.00000000,0.00000000,0.61448867,0.00000000,0.00000000,-0.00000000,0.64256796,-4.34690285,-0.16874191,-8.81783772,10291009.21005011,0.00000000,0.00000000,0.00000000,7348085.28795838,0.00000000,0.00000000,-0.00000000,9135388.76920938,0.96913234,0.64585241,1.56548365,0.94856264,0.04683846,0.29599508,-0.10208814
3.21640491,-0.95103276,0.20213693,0.22770731,0.05316719,0.24206881,0.26002389,-0.14422352,0.26002390,0.37770383,-0.37978466,-0.14422351,-0.37978459,0.79540195,0.03116573,-0.00674564,-0.02026496,0.69494526,0.00000000,0.00000000,0.00000000,0.61448867,0.00000000,0.00000000,-0.00000000,0.64256796,-4.34682369,-0.17829551,-8.81545162,10291009.21005011,0.00000000,0.00000000,0.00000000,7348085.28795838,0.00000000,0.00000000,-0.00000000,9135388.76920938,0.96915279,0.64583496,1.56545996,0.94855204,0.04686336,0.29602372,-0.10209216
3.22134495,-0.95104754,0.20211269,0.22766323,0.05318344,0.24203535,0.25997547,-0.14420540,0.25997547,0.37760603,-0.37970810,-0.14420540,-0.37970803,0.79540042,0.03437611,-0.00723393,-0.02945751,0.69494526,0.00000000,0.00000000,0.00000000,0.61448867,0.00000000,0.00000000,-0.00000000,0.64256796,-4.36829853,-0.19045420,-8.79157448,10291009.21005011,0.00000000,0.00000000,0.00000000,7348085.28795838,0.00000000,0.00000000,-0.00000000,9135388.76920938,0.96917508,0.64581318,1.56543784,0.94854073,0.04689600,0.29605333,-0.10209640
3.24110482,-0.95114791,0.20184514,0.22743222,0.05339205,0.24179062,0.25951808,-0.14399605,0.25951808,0.37680643,-0.37914233,-0.14399605,-0.37914229,0.79511797,0.04026875,-0.00821537,-0.04946992,0.69494526,0.00000000,0.00000000,0.00000000,0.61448867,0.00000000,0.00000000,-0.00000000,0.64256796,-4.45655680,-0.12217365,-8.81532764,10291009.21005011,0.00000000,0.00000000,0.00000000,7348085.28795838,0.00000000,0.00000000,-0.00000000,9135388.76920938,0.96926089,0.64570533,1.56538295,0.94851173,0.04711067,0.29612046,-0.10207229
3.25592491,-0.95122665,0.20164530,0.22724670,0.05353476,0.24158704,0.25914985,-0.14384855,0.25914983,0.37615201,-0.37868845,-0.14384856,-0.37868842,0.79493097,0.03596511,-0.00247986,-0.03809794,0.69494526,0.00000000,0.00000000,0.00000000,0.61448867,0.00000000,0.00000000,-0.00000000,0.64256796,-4.54966688,-0.03961651,-8.78893280,10291009.21005011,0.00000000,0.00000000,0.00000000,7348085.28795838,0.00000000,0.00000000,-0.00000000,9135388.76920938,0.96932290,0.64560533,1.56537013,0.94851365,0.04738229,0.29610421,-0.10197586
3.26086495,-0.95124066,0.20160288,0.22722243,0.05354867,0.24153507,0.25907856,-0.14384231,0.25907856,0.37602131,-0.37859585,-0.14384231,-0.37859589,0.79489737,0.03595123,-0.00353512,-0.03214974,0.69494526,0.00000000,0.00000000,0.00000000,0.61448867,0.00000000,0.00000000,-0.00000000,0.64256796,-4.56395674,-0.01351696,-8.77457047,10291009.21005011,0.00000000,0.00000000,0.00000000,7348085.28795838,0.00000000,0.00000000,-0.00000000,9135388.76920938,0.96940006,0.64545551,1.56538558,0.94852647,0.04781197,0.29606765,-0.10176199
3.26580498,-0.95124573,0.20157421,0.22722559,0.05355312,0.24150614,0.25904395,-0.14385525,0.25904393,0.37595926,-0.37855620,-0.14385527,-0.37855616,0.79486441,0.03168054,-0.00095191,-0.02728441,0.69494526,0.00000000,0.00000000,0.00000000,0.61448867,0.00000000,0.00000000,-0.00000000,0.64256796,-4.58543158,-0.00896954,-8.76261616,10291009.21005011,0.00000000,0.00000000,0.00000000,7348085.28795838,0.00000000,0.00000000,-0.00000000,9135388.76920938,0.96940048,0.64545459,1.56538577,0.94852654,0.04781450,0.29606747,-0.10176067
3.27074475,-0.95124221,0.20155956,0.22725368,0.05355229,0.24150340,0.25904518,-0.14388269,0.25904520,0.37596698,-0.37857033,-0.14388267,-0.37857029,0.79483199,0.02792909,0.00110852,-0.01863281,0.69494526,0.00000000,0.00000000,0.00000000,0.61448867,0.00000000,0.00000000,-0.00000000,0.64256796,-4.60210752,-0.00914754,-8.76021576,10291009.21005011,0.00000000,0.00000000,0.00000000,7348085.28795838,0.00000000,0.00000000,-0.00000000,9135388.76920938,0.96940074,0.64545403,1.56538588,0.94852658,0.04781605,0.29606736,-0.10175986
3.27568479,-0.95123041,0.20156482,0.22729768,0.05355479,0.24154120,0.25908734,-0.14391485,0.25908731,0.37604639,-0.37863911,-0.14391486,-0.37863911,0.79480789,0.02790192,0.00163000,-0.01051367,0.69494526,0.00000000,0.00000000,0.00000000,0.61448867,0.00000000,0.00000000,-0.00000000,0.64256796,-4.61165190,-0.00924787,-8.73872280,10291009.21005011,0.00000000,0.00000000,0.00000000,7348085.28795838,0.00000000,0.00000000,-0.00000000,9135388.76920938,0.96940117,0.64545309,1.56538607,0.94852666,0.04781865,0.29606717,-0.10175849
3.28309496,-0.95120233,0.20159915,0.22738387,0.05355869,0.24164558,0.25919953,-0.14397241,0.25919955,0.37624853,-0.37881039,-0.14397243,-0.37881039,0.79479043,0.02364201,0.00052929,0.00138458,0.69494526,0.00000000,0.00000000,0.00000000,0.61448867,0.00000000,0.00000000,-0.00000000,0.64256796,-4.63559246,-0.01187804,-8.66231728,10291009.21005011,0.00000000,0.00000000,0.00000000,7348085.28795838,0.00000000,0.00000000,-0.00000000,9135388.76920938,0.96941923,0.64541255,1.56539505,0.94852949,0.04792855,0.29605993,-0.10170137
3.28803499,-0.95117682,0.20163755,0.22745641,0.05355869,0.24174194,0.25930508,-0.14401932,0.25930514,0.37643626,-0.37896696,-0.14401934,-0.37896696,0.79479036,0.01832857,-0.00163293,0.00839535,0.69494526,0.00000000,0.00000000,0.00000000,0.61448867,0.00000000,0.00000000,-0.00000000,0.64256796,-4.63553905,-0.02858897,-8.64800358,10291009.21005011,0.00000000,0.00000000,0.00000000,7348085.28795838,0.00000000,0.00000000,-0.00000000,9135388.76920938,0.96943649,0.64537106,1.56540566,0.94853174,0.04803577,0.29605397,-0.10164718
3.29297477,-0.95114666,0.20169637,0.22753209,0.05355117,0.24186057,0.25944030,-0.14407390,0.25944030,0.37667366,-0.37916172,-0.14407389,-0.37916172,0.79481765,0.01509709,0.00148380,0.01921806,0.69494526,0.00000000,0.00000000,0.00000000,0.61448867,0.00000000,0.00000000,-0.00000000,0.64256796,-4.63076687,-0.05240467,-8.67667961,10291009.21005011,0.00000000,0.00000000,0.00000000,7348085.28795838,0.00000000,0.00000000,-0.00000000,9135388.76920938,0.96945365,0.64532623,1.56541831,0.94853336,0.04814444,0.29604913,-0.10159477
3.30779487,-0.95104831,0.20192307,0.22775775,0.05348463,0.24223671,0.25991277,-0.14426815,0.25991277,0.37747731,-0.37979654,-0.14426814,-0.37979647,0.79501304,0.00605099,0.00401666,0.02786273,0.69494526,0.00000000,0.00000000,0.00000000,0.61448867,0.00000000,0.00000000,-0.00000000,0.64256796,-4.57832670,-0.12344562,-8.65052128,10291009.21005011,0.00000000,0.00000000,0.00000000,7348085.28795838,0.00000000,0.00000000,-0.00000000,9135388.76920938,0.96949716,0.64518110,1.56546354,0.94853209,0.04843096,0.29604465,-0.10148342
3.32261496,-0.95094752,0.20213616,0.22800888,0.05340070,0.24258548,0.26038483,-0.14448040,0.26038483,0.37829848,-0.38043947,-0.14448040,-0.38043950,0.79519735,0.00023897,0.00290747,0.02297072,0.69494526,0.00000000,0.00000000,0.00000000,0.61448867,0.00000000,0.00000000,-0.00000000,0.64256796,-4.53296423,-0.18024954,-8.61717701,10291009.21005011,0.00000000,0.00000000,0.00000000,7348085.28795838,0.00000000,0.00000000,-0.00000000,9135388.76920938,0.96951996,0.64504368,1.56550718,0.94852188,0.04859928,0.29605493,-0.10146838
3.32755499,-0.95091945,0.20218356,0.22808710,0.05338759,0.24268098,0.26050908,-0.14453506,0.26050907,0.37852638,-0.38062353,-0.14453506,-0.38062350,0.79522332,-0.00135461,0.00552283,0.01864332,0.69494526,0.00000000,0.00000000,0.00000000,0.61448867,0.00000000,0.00000000,-0.00000000,0.64256796,-4.52580595,-0.19210723,-8.61241722,10291009.21005011,0.00000000,0.00000000,0.00000000,7348085.28795838,0.00000000,0.00000000,-0.00000000,9135388.76920938,0.96952308,0.64500363,1.56551953,0.94851745,0.04862951,0.29606027,-0.10147976
3.33249477,-0.95089388,0.20221849,0.22816323,0.05338563,0.24277005,0.26061578,-0.14457972,0.26061578,0.37872710,-0.38078858,-0.14457970,-0.38078862,0.79522907,-0.00027327,0.00343198,0.01485048,0.69494526,0.00000000,0.00000000,0.00000000,0.61448867,0.00000000,0.00000000,-0.00000000,0.64256796,-4.52577972,-0.18017671,-8.60046577,10291009.21005011,0.00000000,0.00000000,0.00000000,7348085.28795838,0.00000000,0.00000000,-0.00000000,9135388.76920938,0.96952469,0.64495621,1.56553404,0.94851148,0.04865589,0.29606779,-0.10150095
3.33743480,-0.95086682,0.20225084,0.22824429,0.05339903,0.24287554,0.26072459,-0.14461511,0.26072461,0.37893610,-0.38096492,-0.14461511,-0.38096485,0.79521369,0.00238964,0.00240859,0.01269057,0.69494526,0.00000000,0.00000000,0.00000000,0.61448867,0.00000000,0.00000000,-0.00000000,0.64256796,-4.54248190,-0.16603278,-8.58850384,10291009.21005011,0.00000000,0.00000000,0.00000000,7348085.28795838,0.00000000,0.00000000,-0.00000000,9135388.76920938,0.96952393,0.64490576,1.56554949,0.94850439,0.04867431,0.29607707,-0.10153127
3.34237483,-0.95084167,0.20227434,0.22832325,0.05342023,0.24297569,0.26081988,-0.14464334,0.26081983,0.37912467,-0.38112918,-0.14464331,-0.38112911,0.79518287,0.00399672,0.00137466,0.01107331,0.69494526,0.00000000,0.00000000,0.00000000,0.61448867,0.00000000,0.00000000,-0.00000000,0.64256796,-4.55207968,-0.15896851,-8.60282135,10291009.21005011,0.00000000,0.00000000,0.00000000,7348085.28795838,0.00000000,0.00000000,-0.00000000,9135388.76920938,0.96952115,0.64486164,1.56556315,0.94849766,0.04868361,0.29608617,-0.10156319
3.34731487,-0.95081925,0.20228185,0.22840363,0.05344728,0.24306012,0.26089593,-0.14466632,0.26089595,0.37928716,-0.38127678,-0.14466633,-0.38127678,0.79512580,0.00348242,0.00295150,0.00241676,0.69494526,0.00000000,0.00000000,0.00000000,0.61448867,0.00000000,0.00000000,-0.00000000,0.64256796,-4.54014921,-0.15406993,-8.65057468,10291009.21005011,0.00000000,0.00000000,0.00000000,7348085.28795838,0.00000000,0.00000000,-0.00000000,9135388.76920938,0.96951562,0.64481185,1.56557889,0.94848956,0.04868784,0.29609743,-0.10160391
3.35225490,-0.95079827,0.20228727,0.22847688,0.05348742,0.24315276,0.26096564,-0.14467696,0.26096566,0.37944057,-0.38141890,-0.14467696,-0.38141883,0.79505917,0.00929658,0.00458798,0.00351730,0.69494526,0.00000000,0.00000000,0.00000000,0.61448867,0.00000000,0.00000000,-0.00000000,0.64256796,-4.52819204,-0.13724081,-8.70308971,10291009.21005011,0.00000000,0.00000000,0.00000000,7348085.28795838,0.00000000,0.00000000,-0.00000000,9135388.76920938,0.96950830,0.64476686,1.56559354,0.94848186,0.04868678,0.29610860,-0.10164375
3.35719493,-0.95077622,0.20229438,0.22855429,0.05352139,0.24324295,0.26103520,-0.14469467,0.26103521,0.37958768,-0.38155964,-0.14469468,-0.38155964,0.79500168,0.00402109,0.00032642,0.00403299,0.69494526,0.00000000,0.00000000,0.00000000,0.61448867,0.00000000,0.00000000,-0.00000000,0.64256796,-4.52341986,-0.12764430,-8.74128246,10291009.21005011,0.00000000,0.00000000,0.00000000,7348085.28795838,0.00000000,0.00000000,-0.00000000,9135388.76920938,0.96949580,0.64471048,1.56561269,0.94847178,0.04867986,0.29612416,-0.10169585
3.37201477,-0.95071197,0.20232324,0.22877611,0.05360485,0.24349713,0.26125086,-0.14475442,0.26125086,0.38005139,-0.38199118,-0.14475442,-0.38199121,0.79485630,0.00079963,0.00449836,0.00727724,0.69494526,0.00000000,0.00000000,0.00000000,0.61448867,0.00000000,0.00000000,-0.00000000,0.64256796,-4.55677176,-0.15425274,-8.78664589,10291009.21005011,0.00000000,0.00000000,0.00000000,7348085.28795838,0.00000000,0.00000000,-0.00000000,9135388.76920938,0.96943394,0.64454383,1.56567692,0.94844137,0.04863489,0.29617751,-0.10184544
3.39424479,-0.95061857,0.20239699,0.22907417,0.05371038,0.24388018,0.26158883,-0.14484125,0.26158888,0.38075298,-0.38263538,-0.14484125,-0.38263538,0.79473849,-0.00559275,0.00811134,0.01539753,0.69494526,0.00000000,0.00000000,0.00000000,0.61448867,0.00000000,0.00000000,-0.00000000,0.64256796,-4.56167650,-0.12087861,-8.78901100,10291009.21005011,0.00000000,0.00000000,0.00000000,7348085.28795838,0.00000000,0.00000000,-0.00000000,9135388.76920938,0.96934656,0.64440114,1.56574470,0.94842435,0.04859180,0.29620151,-0.10195471
3.39918482,-0.95059645,0.20242733,0.22913544,0.05372647,0.24397445,0.26167816,-0.14486442,0.26167812,0.38092610,-0.38278980,-0.14486442,-0.38278980,0.79474271,-0.00772558,0.00861371,0.01864000,0.69494526,0.00000000,0.00000000,0.00000000,0.61448867,0.00000000,0.00000000,-0.00000000,0.64256796,-4.54020214,-0.08962725,-8.78183174,10291009.21005011,0.00000000,0.00000000,0.00000000,7348085.28795838,0.00000000,0.00000000,-0.00000000,9135388.76920938,0.96931326,0.64435752,1.56576869,0.94842285,0.04858257,0.29619743,-0.10198484
3.41400491,-0.95052642,0.20252366,0.22932678,0.05378579,0.24428145,0.26196532,-0.14492808,0.26196526,0.38147930,-0.38327117,-0.14492805,-0.38327114,0.79474403,-0.00135857,0.00657459,0.01973280,0.69494526,0.00000000,0.00000000,0.00000000,0.61448867,0.00000000,0.00000000,-0.00000000,0.64256796,-4.50199795,-0.10593445,-8.73889256,10291009.21005011,0.00000000,0.00000000,0.00000000,7348085.28795838,0.00000000,0.00000000,-0.00000000,9135388.76920938,0.96905974,0.64409507,1.56596072,0.94846091,0.04859613,0.29601011,-0.10216819
3.41894495,-0.95050210,0.20255655,0.22938958,0.05382401,0.24440581,0.26206568,-0.14493551,0.26206562,0.38166984,-0.38343820,-0.14493554,-0.38343834,0.79472983,0.00077761,0.00501990,0.01757007,0.69494526,0.00000000,0.00000000,0.00000000,0.61448867,0.00000000,0.00000000,-0.00000000,0.64256796,-4.47813749,-0.12954947,-8.77235508,10291009.21005011,0.00000000,0.00000000,0.00000000,7348085.28795838,0.00000000,0.00000000,-0.00000000,9135388.76920938,0.96903592,0.64407369,1.56598082,0.94846618,0.04859992,0.29598698,-0.10218447
