time_s,orientation_x,orientation_y,orientation_z,orientation_w,orientation_covariance_0,orientation_covariance_1,orientation_covariance_2,orientation_covariance_3,orientation_covariance_4,orientation_covariance_5,orientation_covariance_6,orientation_covariance_7,orientation_covariance_8,angular_velocity_x,angular_velocity_y,angular_velocity_z,angular_velocity_covariance_0,angular_velocity_covariance_1,angular_velocity_covariance_2,angular_velocity_covariance_3,angular_velocity_covariance_4,angular_velocity_covariance_5,angular_velocity_covariance_6,angular_velocity_covariance_7,angular_velocity_covariance_8,linear_acceleration_x,linear_acceleration_y,linear_acceleration_z,linear_acceleration_covariance_0,linear_acceleration_covariance_1,linear_acceleration_covariance_2,linear_acceleration_covariance_3,linear_acceleration_covariance_4,linear_acceleration_covariance_5,linear_acceleration_covariance_6,linear_acceleration_covariance_7,linear_acceleration_covariance_8,x,y,z,w,rot_x,rot_y,rot_z
1.44672333,-0.99884784,0.04165013,-0.01139904,0.02093639,0.03201539,0.07312524,-0.01534944,0.07312524,0.16984410,-0.05237729,-0.01534943,-0.05237729,0.46796670,0.36390516,-0.15255263,-0.32630575,0.69494526,0.00000000,0.00000000,0.00000000,0.61448867,0.00000000,0.00000000,-0.00000000,0.64256796,0.68176961,-0.98399138,-9.56479931,10291009.21005011,0.00000000,0.00000000,0.00000000,7348085.28795838,0.00000000,0.00000000,-0.00000000,9135388.76920938,-0.28943683,1.99778217,1.63038489,0.03080567,0.02584586,0.02950400,0.99875548
1.46648321,-0.99892604,0.03771992,-0.01031621,0.02485113,0.03366399,0.07407582,-0.01609014,0.07407582,0.16747746,-0.05408651,-0.01609014,-0.05408651,0.46726473,0.38800231,-0.14120706,-0.43336613,0.69494526,0.00000000,0.00000000,0.00000000,0.61448867,0.00000000,0.00000000,-0.00000000,0.64256796,0.08047740,-1.02611089,-9.15381527,10291009.21005011,0.00000000,0.00000000,0.00000000,7348085.28795838,0.00000000,0.00000000,-0.00000000,9135388.76920938,-0.29149560,2.00053792,1.63342570,0.02798771,0.02471269,0.03263937,0.99876956
1.47142324,-0.99894428,0.03657916,-0.01007949,0.02589761,0.03410439,0.07430184,-0.01626867,0.07430184,0.16685836,-0.05452799,-0.01626867,-0.05452800,0.46707496,0.40227166,-0.12474740,-0.45385003,0.69494526,0.00000000,0.00000000,0.00000000,0.61448867,0.00000000,0.00000000,-0.00000000,0.64256796,-0.07938997,-0.96812683,-9.06771088,10291009.21005011,0.00000000,0.00000000,0.00000000,7348085.28795838,0.00000000,0.00000000,-0.00000000,9135388.76920938,-0.29190548,2.00108332,1.63402480,0.02738723,0.02448529,0.03328083,0.99877064
1.47636327,-0.99896020,0.03540186,-0.00984995,0.02698582,0.03456983,0.07453480,-0.01644894,0.07453480,0.16622456,-0.05497326,-0.01644894,-0.05497327,0.46688057,0.41867210,-0.11405469,-0.46785270,0.69494526,0.00000000,0.00000000,0.00000000,0.61448867,0.00000000,0.00000000,-0.00000000,0.64256796,-0.23443221,-0.87668514,-9.05558491,10291009.21005011,0.00000000,0.00000000,0.00000000,7348085.28795838,0.00000000,0.00000000,-0.00000000,9135388.76920938,-0.29250541,2.00187892,1.63489586,0.02647897,0.02415369,0.03423246,0.99877105
1.48130330,-0.99897355,0.03421389,-0.00964973,0.02807352,0.03503884,0.07475876,-0.01661858,0.07475877,0.16559228,-0.05541144,-0.01661858,-0.05541145,0.46668944,0.42064184,-0.08931675,-0.46886707,0.69494526,0.00000000,0.00000000,0.00000000,0.61448867,0.00000000,0.00000000,-0.00000000,0.64256796,-0.37043878,-0.74685264,-9.10551453,10291009.21005011,0.00000000,0.00000000,0.00000000,7348085.28795838,0.00000000,0.00000000,-0.00000000,9135388.76920938,-0.29306292,2.00261498,1.63569797,0.02560113,0.02384825,0.03513142,0.99877006
1.48624333,-0.99898338,0.03304568,-0.00949955,0.02915411,0.03551122,0.07498112,-0.01676743,0.07498112,0.16498588,-0.05582541,-0.01676744,-0.05582542,0.46650580,0.42261658,-0.06773799,-0.45905222,0.69494526,0.00000000,0.00000000,0.00000000,0.61448867,0.00000000,0.00000000,-0.00000000,0.64256796,-0.49944600,-0.62170351,-9.13159180,10291009.21005011,0.00000000,0.00000000,0.00000000,7348085.28795838,0.00000000,0.00000000,-0.00000000,9135388.76920938,-0.29364382,2.00337790,1.63652408,0.02465581,0.02353569,0.03608086,0.99876741
1.50106318,-0.99898857,0.03003674,-0.00921125,0.03216848,0.03689798,0.07563198,-0.01713548,0.07563198,0.16336586,-0.05689126,-0.01713549,-0.05689126,0.46603765,0.36743195,-0.02734291,-0.34274551,0.69494526,0.00000000,0.00000000,0.00000000,0.61448867,0.00000000,0.00000000,-0.00000000,0.64256796,-0.63786507,-0.38688383,-9.13128281,10291009.21005011,0.00000000,0.00000000,0.00000000,7348085.28795838,0.00000000,0.00000000,-0.00000000,9135388.76920938,-0.29562621,2.00594055,1.63923336,0.02132217,0.02256454,0.03935326,0.99874297
1.51588327,-0.99896449,0.02830426,-0.00889272,0.03449280,0.03810063,0.07623185,-0.01747081,0.07623185,0.16216823,-0.05768840,-0.01747082,-0.05768841,0.46574291,0.26882813,-0.03897825,-0.13686455,0.69494526,0.00000000,0.00000000,0.00000000,0.61448867,0.00000000,0.00000000,-0.00000000,0.64256796,-0.51368302,-0.19466224,-9.09774208,10291009.21005011,0.00000000,0.00000000,0.00000000,7348085.28795838,0.00000000,0.00000000,-0.00000000,9135388.76920938,-0.29742445,2.00819012,1.64148072,0.01848966,0.02186917,0.04219196,0.99869901
1.52082330,-0.99895060,0.02811012,-0.00871756,0.03509346,0.03846040,0.07643587,-0.01759829,0.07643586,0.16187111,-0.05791264,-0.01759830,-0.05791264,0.46568473,0.23952678,-0.05351961,-0.05471951,0.69494526,0.00000000,0.00000000,0.00000000,0.61448867,0.00000000,0.00000000,-0.00000000,0.64256796,-0.46598792,-0.14403985,-9.12876225,10291009.21005011,0.00000000,0.00000000,0.00000000,7348085.28795838,0.00000000,0.00000000,-0.00000000,9135388.76920938,-0.29785789,2.00871889,1.64198490,0.01789073,0.02172989,0.04282853,0.99868586
1.52576333,-0.99893451,0.02811674,-0.00851785,0.03559182,0.03878906,0.07663634,-0.01772737,0.07663635,0.16162421,-0.05811827,-0.01772738,-0.05811827,0.46564830,0.19424224,-0.05349810,0.02362709,0.69494526,0.00000000,0.00000000,0.00000000,0.61448867,0.00000000,0.00000000,-0.00000000,0.64256796,-0.38247511,-0.14554855,-9.29832840,10291009.21005011,0.00000000,0.00000000,0.00000000,7348085.28795838,0.00000000,0.00000000,-0.00000000,9135388.76920938,-0.29854314,2.00954295,1.64274981,0.01703551,0.02152935,0.04378323,0.99866376
1.53317325,-0.99890757,0.02850074,-0.00818508,0.03611631,0.03920127,0.07692268,-0.01791462,0.07692269,0.16137778,-0.05836379,-0.01791461,-0.05836379,0.46563950,0.12765934,-0.05739724,0.14303499,0.69494526,0.00000000,0.00000000,0.00000000,0.61448867,0.00000000,0.00000000,-0.00000000,0.64256796,-0.18204436,-0.21503921,-9.59934521,10291009.21005011,0.00000000,0.00000000,0.00000000,7348085.28795838,0.00000000,0.00000000,-0.00000000,9135388.76920938,-0.29911847,2.01022300,1.64336110,0.01641445,0.02137609,0.04452959,0.99864445
1.53811329,-0.99888742,0.02898547,-0.00795426,0.03633822,0.03943119,0.07711186,-0.01803104,0.07711185,0.16129657,-0.05848915,-0.01803106,-0.05848916,0.46566184,0.09355163,-0.06093826,0.21328592,0.69494526,0.00000000,0.00000000,0.00000000,0.61448867,0.00000000,0.00000000,-0.00000000,0.64256796,-0.07228468,-0.25684395,-9.63526630,10291009.21005011,0.00000000,0.00000000,0.00000000,7348085.28795838,0.00000000,0.00000000,-0.00000000,9135388.76920938,-0.29978040,2.01099150,1.64402914,0.01582034,0.02121270,0.04531914,0.99862201
1.54305332,-0.99886531,0.02963016,-0.00770301,0.03648024,0.03963654,0.07730428,-0.01814874,0.07730427,0.16126763,-0.05859301,-0.01814874,-0.05859300,0.46570315,0.06799536,-0.07332909,0.27812644,0.69494526,0.00000000,0.00000000,0.00000000,0.61448867,0.00000000,0.00000000,-0.00000000,0.64256796,-0.01263267,-0.28485593,-9.50401592,10291009.21005011,0.00000000,0.00000000,0.00000000,7348085.28795838,0.00000000,0.00000000,-0.00000000,9135388.76920938,-0.30045691,2.01176119,1.64467304,0.01535547,0.02105585,0.04604387,0.99859943
1.54799335,-0.99884039,0.03043470,-0.00741420,0.03656001,0.03982964,0.07750576,-0.01827703,0.07750576,0.16127510,-0.05868816,-0.01827703,-0.05868816,0.46576088,0.04139262,-0.08678078,0.33862737,0.69494526,0.00000000,0.00000000,0.00000000,0.61448867,0.00000000,0.00000000,-0.00000000,0.64256796,0.03514188,-0.32970428,-9.34650803,10291009.21005011,0.00000000,0.00000000,0.00000000,7348085.28795838,0.00000000,0.00000000,-0.00000000,9135388.76920938,-0.30116179,2.01254600,1.64530310,0.01502587,0.02089943,0.04670840,0.99857687
1.55293338,-0.99881315,0.03137729,-0.00708744,0.03657244,0.04000421,0.07771017,-0.01841615,0.07771018,0.16131872,-0.05877344,-0.01841615,-0.05877344,0.46583565,0.01591395,-0.10652785,0.39262566,0.69494526,0.00000000,0.00000000,0.00000000,0.61448867,0.00000000,0.00000000,-0.00000000,0.64256796,0.10672428,-0.41248232,-9.32753181,10291009.21005011,0.00000000,0.00000000,0.00000000,7348085.28795838,0.00000000,0.00000000,-0.00000000,9135388.76920938,-0.30184133,2.01328609,1.64587277,0.01485120,0.02075245,0.04726357,0.99855642
1.56775322,-0.99871635,0.03481509,-0.00590245,0.03631402,0.04045552,0.07834504,-0.01890309,0.07834505,0.16161762,-0.05903226,-0.01890309,-0.05903226,0.46614626,-0.03559928,-0.14550594,0.50928327,0.69494526,0.00000000,0.00000000,0.00000000,0.61448867,0.00000000,0.00000000,-0.00000000,0.64256796,0.29997033,-0.68490565,-9.62158012,10291009.21005011,0.00000000,0.00000000,0.00000000,7348085.28795838,0.00000000,0.00000000,-0.00000000,9135388.76920938,-0.30447854,2.01600925,1.64776619,0.01536637,0.02017629,0.04867840,0.99849247
1.58257332,-0.99859023,0.03891134,-0.00449013,0.03582218,0.04089838,0.07905367,-0.01947849,0.07905367,0.16209085,-0.05932999,-0.01947848,-0.05932997,0.46656706,-0.08976281,-0.16292649,0.58161243,0.69494526,0.00000000,0.00000000,0.00000000,0.61448867,0.00000000,0.00000000,-0.00000000,0.64256796,-0.09139977,-0.86800843,-9.75999355,10291009.21005011,0.00000000,0.00000000,0.00000000,7348085.28795838,0.00000000,0.00000000,-0.00000000,9135388.76920938,-0.30670846,2.01814377,1.64904049,0.01692845,0.01964308,0.04913196,0.99845562
1.58751335,-0.99854010,0.04039532,-0.00400978,0.03563429,0.04105672,0.07931105,-0.01967439,0.07931104,0.16227519,-0.05943362,-0.01967438,-0.05943361,0.46673204,-0.10633825,-0.14996008,0.60324662,0.69494526,0.00000000,0.00000000,0.00000000,0.61448867,0.00000000,0.00000000,-0.00000000,0.64256796,-0.20115946,-0.90973413,-9.91276646,10291009.21005011,0.00000000,0.00000000,0.00000000,7348085.28795838,0.00000000,0.00000000,-0.00000000,9135388.76920938,-0.30729866,2.01868597,1.64933764,0.01745986,0.01949246,0.04916687,0.99844770
1.59245338,-0.99848819,0.04192435,-0.00355893,0.03536986,0.04117403,0.07954833,-0.01985361,0.07954833,0.16249913,-0.05950760,-0.01985361,-0.05950760,0.46691950,-0.13721796,-0.13766514,0.62104399,0.69494526,0.00000000,0.00000000,0.00000000,0.61448867,0.00000000,0.00000000,-0.00000000,0.64256796,-0.22971301,-0.95061439,-10.15869522,10291009.21005011,0.00000000,0.00000000,0.00000000,7348085.28795838,0.00000000,0.00000000,-0.00000000,9135388.76920938,-0.30815706,2.01945930,1.64974493,0.01829842,0.01926749,0.04916662,0.99843707
1.59739316,-0.99843383,0.04349354,-0.00312891,0.03504885,0.04126347,0.07977642,-0.02002146,0.07977642,0.16276702,-0.05955455,-0.02002145,-0.05955452,0.46712735,-0.15587462,-0.12839857,0.63725106,0.69494526,0.00000000,0.00000000,0.00000000,0.61448867,0.00000000,0.00000000,-0.00000000,0.64256796,-0.23209909,-0.99837124,-10.26617718,10291009.21005011,0.00000000,0.00000000,0.00000000,7348085.28795838,0.00000000,0.00000000,-0.00000000,9135388.76920938,-0.30904936,2.02024529,1.65014069,0.01923760,0.01902757,0.04911087,0.99842676
1.60233319,-0.99837607,0.04509701,-0.00272411,0.03469955,0.04134228,0.08000621,-0.02017807,0.08000621,0.16307032,-0.05958948,-0.02017806,-0.05958947,0.46735107,-0.16444043,-0.11691997,0.64592417,0.69494526,0.00000000,0.00000000,0.00000000,0.61448867,0.00000000,0.00000000,-0.00000000,0.64256796,-0.19164160,-1.04089367,-10.18507671,10291009.21005011,0.00000000,0.00000000,0.00000000,7348085.28795838,0.00000000,0.00000000,-0.00000000,9135388.76920938,-0.30995600,2.02102659,1.65051779,0.02024675,0.01877889,0.04900526,0.99841670
1.60974337,-0.99828392,0.04753209,-0.00215273,0.03413716,0.04144475,0.08034821,-0.02039763,0.08034821,0.16356415,-0.05960690,-0.02039763,-0.05960691,0.46771331,-0.17667441,-0.11547300,0.65454602,0.69494526,0.00000000,0.00000000,0.00000000,0.61448867,0.00000000,0.00000000,-0.00000000,0.64256796,-0.13429627,-1.07848430,-9.89386463,10291009.21005011,0.00000000,0.00000000,0.00000000,7348085.28795838,0.00000000,0.00000000,-0.00000000,9135388.76920938,-0.31089966,2.02182258,1.65088728,0.02134350,0.01851571,0.04885079,0.99840634
1.61468314,-0.99821943,0.04915706,-0.00175629,0.03374201,0.04150593,0.08057094,-0.02055309,0.08057092,0.16390044,-0.05962066,-0.02055309,-0.05962065,0.46796702,-0.18722383,-0.12399582,0.65503618,0.69494526,0.00000000,0.00000000,0.00000000,0.61448867,0.00000000,0.00000000,-0.00000000,0.64256796,-0.07941643,-1.09700012,-9.75782776,10291009.21005011,0.00000000,0.00000000,0.00000000,7348085.28795838,0.00000000,0.00000000,-0.00000000,9135388.76920938,-0.31185386,2.02261096,1.65124084,0.02249768,0.01824450,0.04865336,0.99839563
1.61962318,-0.99815375,0.05075557,-0.00134277,0.03333481,0.04155984,0.08078628,-0.02071840,0.08078626,0.16424045,-0.05963945,-0.02071841,-0.05963944,0.46822678,-0.18927118,-0.13032177,0.64364943,0.69494526,0.00000000,0.00000000,0.00000000,0.61448867,0.00000000,0.00000000,-0.00000000,0.64256796,0.03272934,-1.10775411,-9.75790787,10291009.21005011,0.00000000,0.00000000,0.00000000,7348085.28795838,0.00000000,0.00000000,-0.00000000,9135388.76920938,-0.31279611,2.02337441,1.65157361,0.02368089,0.01797092,0.04842171,0.99838450
1.63444327,-0.99794650,0.05538617,-0.00012207,0.03217566,0.04175251,0.08143929,-0.02122331,0.08143930,0.16525205,-0.05973783,-0.02122331,-0.05973782,0.46902343,-0.17902522,-0.13650403,0.59820439,0.69494526,0.00000000,0.00000000,0.00000000,0.61448867,0.00000000,0.00000000,-0.00000000,0.64256796,0.18302591,-1.16106296,-9.80103016,10291009.21005011,0.00000000,0.00000000,0.00000000,7348085.28795838,0.00000000,0.00000000,-0.00000000,9135388.76920938,-0.31851565,2.02774445,1.65339683,0.03173190,0.01615607,0.04641422,0.99828743
1.64926337,-0.99773955,0.05949622,0.00109183,0.03122138,0.04201104,0.08208221,-0.02175291,0.08208221,0.16614693,-0.05992994,-0.02175292,-0.05992994,0.46978154,-0.13959922,-0.13343133,0.52092714,0.69494526,0.00000000,0.00000000,0.00000000,0.61448867,0.00000000,0.00000000,-0.00000000,0.64256796,0.32624367,-1.13092399,-9.95627213,10291009.21005011,0.00000000,0.00000000,0.00000000,7348085.28795838,0.00000000,0.00000000,-0.00000000,9135388.76920938,-0.31998171,2.02880504,1.65384402,0.03400554,0.01564377,0.04577985,0.99825002
1.65420314,-0.99767345,0.06072038,0.00144436,0.03096161,0.04210806,0.08228945,-0.02191045,0.08228945,0.16641472,-0.05999944,-0.02191046,-0.05999946,0.47001869,-0.13210855,-0.12807791,0.48686874,0.69494526,0.00000000,0.00000000,0.00000000,0.61448867,0.00000000,0.00000000,-0.00000000,0.64256796,0.41688827,-1.08223653,-10.09237289,10291009.21005011,0.00000000,0.00000000,0.00000000,7348085.28795838,0.00000000,0.00000000,-0.00000000,9135388.76920938,-0.32018802,2.02895266,1.65390703,0.03432795,0.01557049,0.04568887,0.99824430
1.65914318,-0.99760884,0.06188423,0.00181060,0.03071906,0.04220825,0.08249018,-0.02207573,0.08249016,0.16666037,-0.06007218,-0.02207572,-0.06007218,0.47024833,-0.12562593,-0.13799299,0.46629645,0.69494526,0.00000000,0.00000000,0.00000000,0.61448867,0.00000000,0.00000000,-0.00000000,0.64256796,0.43836296,-1.02711928,-10.03980732,10291009.21005011,0.00000000,0.00000000,0.00000000,7348085.28795838,0.00000000,0.00000000,-0.00000000,9135388.76920938,-0.32133380,2.02976556,1.65425810,0.03611396,0.01515953,0.04518197,0.99821068
1.66408321,-0.99754548,0.06298118,0.00221079,0.03052051,0.04232985,0.08269801,-0.02225938,0.08269803,0.16687770,-0.06017268,-0.02225938,-0.06017268,0.47046343,-0.10582083,-0.15723457,0.43815446,0.69494526,0.00000000,0.00000000,0.00000000,0.61448867,0.00000000,0.00000000,-0.00000000,0.64256796,0.47423363,-0.97901857,-9.91323853,10291009.21005011,0.00000000,0.00000000,0.00000000,7348085.28795838,0.00000000,0.00000000,-0.00000000,9135388.76920938,-0.32251536,2.03059200,1.65462335,0.03792473,0.01473072,0.04466510,0.99817321
1.66902324,-0.99748361,0.06400746,0.00262380,0.03037491,0.04247546,0.08291428,-0.02245212,0.08291429,0.16706419,-0.06030485,-0.02245213,-0.06030486,0.47066162,-0.07919866,-0.16325800,0.41007156,0.69494526,0.00000000,0.00000000,0.00000000,0.61448867,0.00000000,0.00000000,-0.00000000,0.64256796,0.52672732,-0.95698750,-9.85594845,10291009.21005011,0.00000000,0.00000000,0.00000000,7348085.28795838,0.00000000,0.00000000,-0.00000000,9135388.76920938,-0.32378650,2.03146828,1.65502179,0.03980450,0.01426632,0.04412858,0.99813062
1.67396327,-0.99742347,0.06496068,0.00304932,0.03028427,0.04264566,0.08313784,-0.02265284,0.08313783,0.16721305,-0.06045842,-0.02265283,-0.06045843,0.47084215,-0.05782103,-0.17827547,0.38195127,0.69494526,0.00000000,0.00000000,0.00000000,0.61448867,0.00000000,0.00000000,-0.00000000,0.64256796,0.52911341,-0.97128195,-9.88938904,10291009.21005011,0.00000000,0.00000000,0.00000000,7348085.28795838,0.00000000,0.00000000,-0.00000000,9135388.76920938,-0.32499110,2.03228693,1.65540645,0.04150454,0.01382290,0.04364644,0.99808882
1.67890330,-0.99736625,0.06583620,0.00350620,0.03023058,0.04282953,0.08335800,-0.02286991,0.08335800,0.16731876,-0.06063848,-0.02286992,-0.06063847,0.47100499,-0.04860269,-0.19657107,0.35000043,0.69494526,0.00000000,0.00000000,0.00000000,0.61448867,0.00000000,0.00000000,-0.00000000,0.64256796,0.47423363,-1.01243079,-10.03503323,10291009.21005011,0.00000000,0.00000000,0.00000000,7348085.28795838,0.00000000,0.00000000,-0.00000000,9135388.76920938,-0.32615018,2.03306427,1.65578471,0.04305747,0.01339164,0.04321166,0.99804783
1.68384333,-0.99731183,0.06664335,0.00397620,0.03019951,0.04301788,0.08357190,-0.02309489,0.08357189,0.16739978,-0.06084394,-0.02309490,-0.06084397,0.47115362,-0.04003674,-0.19752152,0.32404689,0.69494526,0.00000000,0.00000000,0.00000000,0.61448867,0.00000000,0.00000000,-0.00000000,0.64256796,0.42409948,-1.06307340,-10.26425552,10291009.21005011,0.00000000,0.00000000,0.00000000,7348085.28795838,0.00000000,0.00000000,-0.00000000,9135388.76920938,-0.32749944,2.03395673,1.65623720,0.04475198,0.01288203,0.04274797,0.99799996
1.69866318,-0.99716884,0.06867125,0.00528721,0.03017681,0.04354974,0.08414382,-0.02372594,0.08414382,0.16755332,-0.06145536,-0.02372595,-0.06145537,0.47153713,-0.03510373,-0.18480825,0.24508518,0.69494526,0.00000000,0.00000000,0.00000000,0.61448867,0.00000000,0.00000000,-0.00000000,0.64256796,0.16155119,-1.12071669,-10.58885574,10291009.21005011,0.00000000,0.00000000,0.00000000,7348085.28795838,0.00000000,0.00000000,-0.00000000,9135388.76920938,-0.33191113,2.03678667,1.65783373,0.04940059,0.01114873,0.04158414,0.99785071
1.71348327,-0.99705690,0.07020126,0.00649501,0.03011725,0.04395696,0.08456721,-0.02430925,0.08456721,0.16762621,-0.06203574,-0.02430925,-0.06203574,0.47185341,-0.04252822,-0.15908784,0.18937975,0.69494526,0.00000000,0.00000000,0.00000000,0.61448867,0.00000000,0.00000000,-0.00000000,0.64256796,0.17594707,-0.82940996,-10.85120678,10291009.21005011,0.00000000,0.00000000,0.00000000,7348085.28795838,0.00000000,0.00000000,-0.00000000,9135388.76920938,-0.33534557,2.03890418,1.65923039,0.05217514,0.00973993,0.04101701,0.99774771
1.71842330,-0.99702394,0.07064328,0.00683267,0.03010116,0.04407606,0.08469354,-0.02447277,0.08469354,0.16765972,-0.06220029,-0.02447277,-0.06220029,0.47195152,-0.03085932,-0.15633455,0.18184484,0.69494526,0.00000000,0.00000000,0.00000000,0.61448867,0.00000000,0.00000000,-0.00000000,0.64256796,0.07570525,-0.66339993,-10.64804840,10291009.21005011,0.00000000,0.00000000,0.00000000,7348085.28795838,0.00000000,0.00000000,-0.00000000,9135388.76920938,-0.33553664,2.03901999,1.65931253,0.05231051,0.00966059,0.04099288,0.99774239
1.72336333,-0.99699008,0.07107470,0.00719697,0.03012244,0.04422128,0.08483597,-0.02464897,0.08483598,0.16767503,-0.06237842,-0.02464896,-0.06237843,0.47204101,-0.01646954,-0.16722891,0.17806918,0.69494526,0.00000000,0.00000000,0.00000000,0.61448867,0.00000000,0.00000000,-0.00000000,0.64256796,-0.05314308,-0.53826535,-10.35657215,10291009.21005011,0.00000000,0.00000000,0.00000000,7348085.28795838,0.00000000,0.00000000,-0.00000000,9135388.76920938,-0.33669723,2.03971928,1.65982185,0.05309400,0.00917757,0.04086071,0.99771098
1.73077325,-0.99693769,0.07170028,0.00775315,0.03023625,0.04449105,0.08508250,-0.02491996,0.08508250,0.16766689,-0.06268793,-0.02491997,-0.06268793,0.47215827,0.00474077,-0.16490422,0.17218564,0.69494526,0.00000000,0.00000000,0.00000000,0.61448867,0.00000000,0.00000000,-0.00000000,0.64256796,-0.03172131,-0.40199935,-10.30393410,10291009.21005011,0.00000000,0.00000000,0.00000000,7348085.28795838,0.00000000,0.00000000,-0.00000000,9135388.76920938,-0.33783909,2.04040061,1.66034074,0.05380356,0.00870163,0.04075271,0.99768165
1.73324314,-0.99691999,0.07190636,0.00792235,0.03028623,0.04458692,0.08516914,-0.02500295,0.08516914,0.16766379,-0.06279034,-0.02500295,-0.06279033,0.47219601,0.01160133,-0.15957434,0.17113588,0.69494526,0.00000000,0.00000000,0.00000000,0.61448867,0.00000000,0.00000000,-0.00000000,0.64256796,0.00168381,-0.36584941,-10.34212112,10291009.21005011,0.00000000,0.00000000,0.00000000,7348085.28795838,0.00000000,0.00000000,-0.00000000,9135388.76920938,-0.33899747,2.04108558,1.66088545,0.05446730,0.00821941,0.04066356,0.99765336
1.74065332,-0.99686438,0.07254644,0.00840160,0.03046088,0.04489318,0.08544447,-0.02523828,0.08544447,0.16765430,-0.06308274,-0.02523828,-0.06308275,0.47231179,0.02477950,-0.15418658,0.18254691,0.69494526,0.00000000,0.00000000,0.00000000,0.61448867,0.00000000,0.00000000,-0.00000000,0.64256796,-0.02928228,-0.30890220,-10.27280426,10291009.21005011,0.00000000,0.00000000,0.00000000,7348085.28795838,0.00000000,0.00000000,-0.00000000,9135388.76920938,-0.34024483,2.04181688,1.66149280,0.05512684,0.00770220,0.04058959,0.99762427
1.74559335,-0.99682581,0.07299396,0.00873123,0.03056052,0.04509286,0.08562576,-0.02539948,0.08562577,0.16765082,-0.06326837,-0.02539948,-0.06326837,0.47239469,0.02589128,-0.16364298,0.18686014,0.69494526,0.00000000,0.00000000,0.00000000,0.61448867,0.00000000,0.00000000,-0.00000000,0.64256796,-0.07467075,-0.31653368,-10.10088634,10291009.21005011,0.00000000,0.00000000,0.00000000,7348085.28795838,0.00000000,0.00000000,-0.00000000,9135388.76920938,-0.34137906,2.04247689,1.66206394,0.05568424,0.00723501,0.04054129,0.99759878
1.75053338,-0.99678612,0.07345641,0.00909977,0.03064038,0.04528817,0.08580355,-0.02557929,0.08580356,0.16764644,-0.06346545,-0.02557928,-0.06346544,0.47248079,0.02384835,-0.17839157,0.19168793,0.69494526,0.00000000,0.00000000,0.00000000,0.61448867,0.00000000,0.00000000,-0.00000000,0.64256796,-0.07228468,-0.35708064,-9.92186451,10291009.21005011,0.00000000,0.00000000,0.00000000,7348085.28795838,0.00000000,0.00000000,-0.00000000,9135388.76920938,-0.34245157,2.04309724,1.66262065,0.05618059,0.00679697,0.04051151,0.99757524
1.75547316,-0.99674541,0.07392161,0.00950112,0.03072318,0.04549123,0.08598672,-0.02577531,0.08598672,0.16763993,-0.06368440,-0.02577530,-0.06368440,0.47256407,0.02760584,-0.18939963,0.19490888,0.69494526,0.00000000,0.00000000,0.00000000,0.61448867,0.00000000,0.00000000,-0.00000000,0.64256796,-0.03400150,-0.40442064,-9.81448650,10291009.21005011,0.00000000,0.00000000,0.00000000,7348085.28795838,0.00000000,0.00000000,-0.00000000,9135388.76920938,-0.34371625,2.04382474,1.66329779,0.05673451,0.00628444,0.04049569,0.99754789
1.77029325,-0.99661833,0.07533558,0.01083129,0.03097028,0.04612586,0.08654824,-0.02642568,0.08654823,0.16759454,-0.06442205,-0.02642569,-0.06442205,0.47280853,0.02298645,-0.20995341,0.18889537,0.69494526,0.00000000,0.00000000,0.00000000,0.61448867,0.00000000,0.00000000,-0.00000000,0.64256796,-0.11279508,-0.55082536,-9.91963196,10291009.21005011,0.00000000,0.00000000,0.00000000,7348085.28795838,0.00000000,0.00000000,-0.00000000,9135388.76920938,-0.34714098,2.04577918,1.66524095,0.05812205,0.00490031,0.04055473,0.99747337
1.78511335,-0.99650174,0.07654344,0.01214339,0.03127193,0.04676165,0.08708728,-0.02706889,0.08708727,0.16751127,-0.06520022,-0.02706889,-0.06520023,0.47300551,0.03732233,-0.19453495,0.15001291,0.69494526,0.00000000,0.00000000,0.00000000,0.61448867,0.00000000,0.00000000,-0.00000000,0.64256796,-0.14386708,-0.62513077,-10.08203983,10291009.21005011,0.00000000,0.00000000,0.00000000,7348085.28795838,0.00000000,0.00000000,-0.00000000,9135388.76920938,-0.35037791,2.04761511,1.66721600,0.05935361,0.00356898,0.04073819,0.99739902
1.79005338,-0.99646741,0.07686719,0.01255664,0.03140886,0.04698019,0.08726313,-0.02727108,0.08726313,0.16746702,-0.06545520,-0.02727107,-0.06545517,0.47305185,0.05437317,-0.20013613,0.13435844,0.69494526,0.00000000,0.00000000,0.00000000,0.61448867,0.00000000,0.00000000,-0.00000000,0.64256796,-0.20598459,-0.58759028,-9.97453499,10291009.21005011,0.00000000,0.00000000,0.00000000,7348085.28795838,0.00000000,0.00000000,-0.00000000,9135388.76920938,-0.35141558,2.04820272,1.66787502,0.05973459,0.00313356,0.04082038,0.99737438
1.79499316,-0.99643260,0.07716949,0.01299117,0.03159311,0.04722982,0.08745502,-0.02748335,0.08745502,0.16739805,-0.06573199,-0.02748336,-0.06573199,0.47308433,0.07300751,-0.20940678,0.12572800,0.69494526,0.00000000,0.00000000,0.00000000,0.61448867,0.00000000,0.00000000,-0.00000000,0.64256796,-0.24177578,-0.54978114,-9.92911434,10291009.21005011,0.00000000,0.00000000,0.00000000,7348085.28795838,0.00000000,0.00000000,-0.00000000,9135388.76920938,-0.35252863,2.04883294,1.66859490,0.06013583,0.00266161,0.04091985,0.99734756
1.79993319,-0.99639833,0.07745416,0.01342552,0.03179551,0.04748872,0.08764778,-0.02769596,0.08764779,0.16731168,-0.06602039,-0.02769596,-0.06602038,0.47310937,0.07618647,-0.20674140,0.11761905,0.69494526,0.00000000,0.00000000,0.00000000,0.61448867,0.00000000,0.00000000,-0.00000000,0.64256796,-0.22260769,-0.51378894,-10.08665943,10291009.21005011,0.00000000,0.00000000,0.00000000,7348085.28795838,0.00000000,0.00000000,-0.00000000,9135388.76920938,-0.35365643,2.04947159,1.66933760,0.06053455,0.00217978,0.04103161,0.99732002
1.80487322,-0.99636519,0.07772227,0.01385162,0.03199640,0.04774302,0.08783525,-0.02790446,0.08783526,0.16722569,-0.06630510,-0.02790446,-0.06630510,0.47313167,0.08095458,-0.20458697,0.11384946,0.69494526,0.00000000,0.00000000,0.00000000,0.61448867,0.00000000,0.00000000,-0.00000000,0.64256796,-0.22976594,-0.48999834,-10.23943329,10291009.21005011,0.00000000,0.00000000,0.00000000,7348085.28795838,0.00000000,0.00000000,-0.00000000,9135388.76920938,-0.35475872,2.05009602,1.67007600,0.06091664,0.00170697,0.04115052,0.99729278
1.80981325,-0.99633050,0.07799481,0.01427336,0.03222749,0.04801975,0.08803881,-0.02811078,0.08803881,0.16713774,-0.06659622,-0.02811078,-0.06659625,0.47314944,0.09577202,-0.20233310,0.11714371,0.69494526,0.00000000,0.00000000,0.00000000,0.61448867,0.00000000,0.00000000,-0.00000000,0.64256796,-0.34429780,-0.49120229,-10.22503853,10291009.21005011,0.00000000,0.00000000,0.00000000,7348085.28795838,0.00000000,0.00000000,-0.00000000,9135388.76920938,-0.35586397,2.05072250,1.67082833,0.06129218,0.00123262,0.04127838,0.99726518
1.81475329,-0.99629408,0.07829276,0.01474223,0.03242018,0.04828257,0.08822809,-0.02833888,0.08822810,0.16703621,-0.06688291,-0.02833889,-0.06688292,0.47317437,0.08990525,-0.20187314,0.12849356,0.69494526,0.00000000,0.00000000,0.00000000,0.61448867,0.00000000,0.00000000,-0.00000000,0.64256796,-0.51132345,-0.50966418,-10.18913937,10291009.21005011,0.00000000,0.00000000,0.00000000,7348085.28795838,0.00000000,0.00000000,-0.00000000,9135388.76920938,-0.35702989,2.05138384,1.67163457,0.06168092,0.00073303,0.04142143,0.99723578
1.81969332,-0.99625379,0.07861688,0.01530024,0.03261425,0.04856616,0.08843400,-0.02860980,0.08843400,0.16693694,-0.06722409,-0.02860980,-0.06722409,0.47319706,0.07658726,-0.19517747,0.13713235,0.69494526,0.00000000,0.00000000,0.00000000,0.61448867,0.00000000,0.00000000,-0.00000000,0.64256796,-0.63778555,-0.54201919,-10.24400425,10291009.21005011,0.00000000,0.00000000,0.00000000,7348085.28795838,0.00000000,0.00000000,-0.00000000,9135388.76920938,-0.35812959,2.05200790,1.67240680,0.06204276,0.00026227,0.04156278,0.99720768
1.83698330,-0.99609625,0.08004202,0.01711076,0.03305650,0.04945285,0.08912703,-0.02949256,0.08912704,0.16675464,-0.06834116,-0.02949256,-0.06834115,0.47338614,0.02480176,-0.16049960,0.18631495,0.69494526,0.00000000,0.00000000,0.00000000,0.61448867,0.00000000,0.00000000,-0.00000000,0.64256796,-0.83811057,-0.68494439,-10.19387054,10291009.21005011,0.00000000,0.00000000,0.00000000,7348085.28795838,0.00000000,0.00000000,-0.00000000,9135388.76920938,-0.36180781,2.05409496,1.67507198,0.06324855,-0.00131510,0.04206477,0.99711005
1.85180314,-0.99594408,0.08152889,0.01855549,0.03322847,0.05013070,0.08971986,-0.03019717,0.08971986,0.16678499,-0.06918648,-0.03019715,-0.06918647,0.47365228,0.00244783,-0.15284946,0.20739169,0.69494526,0.00000000,0.00000000,0.00000000,0.61448867,0.00000000,0.00000000,-0.00000000,0.64256796,-0.76668704,-0.87271780,-9.96490955,10291009.21005011,0.00000000,0.00000000,0.00000000,7348085.28795838,0.00000000,0.00000000,-0.00000000,9135388.76920938,-0.36500032,2.05590121,1.67748731,0.06433016,-0.00268277,0.04249836,0.99701972
1.85674318,-0.99589223,0.08203307,0.01901478,0.03328202,0.05035587,0.08992127,-0.03042126,0.08992129,0.16681116,-0.06946062,-0.03042126,-0.06946062,0.47374689,-0.00182651,-0.14710815,0.20685305,0.69494526,0.00000000,0.00000000,0.00000000,0.61448867,0.00000000,0.00000000,-0.00000000,0.64256796,-0.72850972,-0.93914092,-10.01035976,10291009.21005011,0.00000000,0.00000000,0.00000000,7348085.28795838,0.00000000,0.00000000,-0.00000000,9135388.76920938,-0.36595301,2.05643805,1.67822685,0.06466370,-0.00308539,0.04261728,0.99699190
1.86168321,-0.99584121,0.08252116,0.01946476,0.03334174,0.05058166,0.09012191,-0.03064034,0.09012192,0.16683613,-0.06972982,-0.03064034,-0.06972982,0.47383912,-0.00446146,-0.14818395,0.19708594,0.69494526,0.00000000,0.00000000,0.00000000,0.61448867,0.00000000,0.00000000,-0.00000000,0.64256796,-0.68537492,-1.00553071,-10.05579472,10291009.21005011,0.00000000,0.00000000,0.00000000,7348085.28795838,0.00000000,0.00000000,-0.00000000,9135388.76920938,-0.36705247,2.05705580,1.67909139,0.06505447,-0.00354469,0.04274595,0.99695944
1.86662324,-0.99579179,0.08298124,0.01991056,0.03341250,0.05080916,0.09031972,-0.03085696,0.09031972,0.16685277,-0.06999986,-0.03085696,-0.06999989,0.47392441,-0.00599021,-0.15292719,0.18624581,0.69494526,0.00000000,0.00000000,0.00000000,0.61448867,0.00000000,0.00000000,-0.00000000,0.64256796,-0.63288116,-1.06464374,-10.12034702,10291009.21005011,0.00000000,0.00000000,0.00000000,7348085.28795838,0.00000000,0.00000000,-0.00000000,9135388.76920938,-0.36817903,2.05768632,1.67998981,0.06546008,-0.00400802,0.04286752,0.99692592
1.87156327,-0.99574512,0.08340128,0.02033781,0.03349957,0.05103707,0.09051318,-0.03106445,0.09051318,0.16686118,-0.07026900,-0.03106444,-0.07026899,0.47400019,-0.00275170,-0.15130580,0.16895411,0.69494526,0.00000000,0.00000000,0.00000000,0.61448867,0.00000000,0.00000000,-0.00000000,0.64256796,-0.57338798,-1.10457397,-10.21832466,10291009.21005011,0.00000000,0.00000000,0.00000000,7348085.28795838,0.00000000,0.00000000,-0.00000000,9135388.76920938,-0.36933512,2.05833026,1.68092539,0.06588033,-0.00447428,0.04298057,0.99689139
1.87650330,-0.99570227,0.08376781,0.02074836,0.03360705,0.05126516,0.09069981,-0.03126324,0.09069982,0.16685602,-0.07053457,-0.03126324,-0.07053457,0.47406273,0.00525403,-0.15068757,0.14895388,0.69494526,0.00000000,0.00000000,0.00000000,0.61448867,0.00000000,0.00000000,-0.00000000,0.64256796,-0.51850820,-1.12547636,-10.35207939,10291009.21005011,0.00000000,0.00000000,0.00000000,7348085.28795838,0.00000000,0.00000000,-0.00000000,9135388.76920938,-0.37056858,2.05901323,1.68193934,0.06633135,-0.00496002,0.04308738,0.99685457
1.88144333,-0.99566257,0.08409201,0.02113121,0.03373494,0.05149414,0.09088063,-0.03144828,0.09088063,0.16683748,-0.07079281,-0.03144830,-0.07079281,0.47411509,0.00843761,-0.14486235,0.13165038,0.69494526,0.00000000,0.00000000,0.00000000,0.61448867,0.00000000,0.00000000,-0.00000000,0.64256796,-0.48261106,-1.11794996,-10.48101234,10291009.21005011,0.00000000,0.00000000,0.00000000,7348085.28795838,0.00000000,0.00000000,-0.00000000,9135388.76920938,-0.37156376,2.05956075,1.68277007,0.06669541,-0.00534326,0.04316372,0.99682499
1.88638337,-0.99562693,0.08436365,0.02148195,0.03388677,0.05172354,0.09105589,-0.03161734,0.09105588,0.16680904,-0.07104233,-0.03161733,-0.07104232,0.47415464,0.01905394,-0.13632724,0.10843028,0.69494526,0.00000000,0.00000000,0.00000000,0.61448867,0.00000000,0.00000000,-0.00000000,0.64256796,-0.48499715,-1.09172261,-10.51679707,10291009.21005011,0.00000000,0.00000000,0.00000000,7348085.28795838,0.00000000,0.00000000,-0.00000000,9135388.76920938,-0.37263049,2.06014365,1.68367396,0.06708381,-0.00574605,0.04323670,0.99679353
1.90120321,-0.99553162,0.08495112,0.02263540,0.03446363,0.05246157,0.09156454,-0.03216694,0.09156454,0.16659395,-0.07183993,-0.03216694,-0.07183993,0.47419197,0.03734949,-0.16030969,0.06783576,0.69494526,0.00000000,0.00000000,0.00000000,0.61448867,0.00000000,0.00000000,-0.00000000,0.64256796,-0.71411383,-1.06310022,-10.43068218,10291009.21005011,0.00000000,0.00000000,0.00000000,7348085.28795838,0.00000000,0.00000000,-0.00000000,9135388.76920938,-0.37654974,2.06224210,1.68713119,0.06846326,-0.00716822,0.04344408,0.99668150
1.91849319,-0.99543917,0.08542001,0.02392360,0.03509941,0.05324042,0.09206216,-0.03278137,0.09206217,0.16628902,-0.07276186,-0.03278137,-0.07276185,0.47419260,0.01599814,-0.12896707,0.05270184,0.69494526,0.00000000,0.00000000,0.00000000,0.61448867,0.00000000,0.00000000,-0.00000000,0.64256796,-0.77137977,-1.05892909,-10.86517143,10291009.21005011,0.00000000,0.00000000,0.00000000,7348085.28795838,0.00000000,0.00000000,-0.00000000,9135388.76920938,-0.37968987,2.06386296,1.69009065,0.06947969,-0.00830275,0.04359985,0.99659555
1.92343322,-0.99541414,0.08554386,0.02429721,0.03525001,0.05344028,0.09218834,-0.03295887,0.09218835,0.16621020,-0.07300911,-0.03295887,-0.07300909,0.47419544,0.01870549,-0.13945863,0.05538888,0.69494526,0.00000000,0.00000000,0.00000000,0.61448867,0.00000000,0.00000000,-0.00000000,0.64256796,-0.83580393,-1.07392573,-10.62400627,10291009.21005011,0.00000000,0.00000000,0.00000000,7348085.28795838,0.00000000,0.00000000,-0.00000000,9135388.76920938,-0.38032919,2.06418528,1.69071812,0.06967532,-0.00854225,0.04363875,0.99657817
1.93825332,-0.99532950,0.08599947,0.02557511,0.03562592,0.05403321,0.09256222,-0.03356969,0.09256223,0.16597144,-0.07383099,-0.03356968,-0.07383099,0.47421476,-0.00570874,-0.14392638,0.07479011,0.69494526,0.00000000,0.00000000,0.00000000,0.61448867,0.00000000,0.00000000,-0.00000000,0.64256796,-1.15551209,-1.09638190,-10.62860298,10291009.21005011,0.00000000,0.00000000,0.00000000,7348085.28795838,0.00000000,0.00000000,-0.00000000,9135388.76920938,-0.38402445,2.06599253,1.69453960,0.07075530,-0.01005953,0.04398098,0.99647286
1.94319335,-0.99530053,0.08619997,0.02599496,0.03564788,0.05416769,0.09265420,-0.03377294,0.09265420,0.16592770,-0.07407971,-0.03377294,-0.07407971,0.47425019,-0.03020156,-0.13419404,0.09097984,0.69494526,0.00000000,0.00000000,0.00000000,0.61448867,0.00000000,0.00000000,-0.00000000,0.64256796,-1.24138463,-1.09490061,-10.82670975,10291009.21005011,0.00000000,0.00000000,0.00000000,7348085.28795838,0.00000000,0.00000000,-0.00000000,9135388.76920938,-0.38449037,2.06621330,1.69504762,0.07088688,-0.01027348,0.04404390,0.99645855
1.94813338,-0.99527049,0.08643983,0.02639628,0.03561044,0.05426681,0.09273380,-0.03396877,0.09273380,0.16591974,-0.07430496,-0.03396877,-0.07430497,0.47430702,-0.04886641,-0.12334961,0.10664969,0.69494526,0.00000000,0.00000000,0.00000000,0.61448867,0.00000000,0.00000000,-0.00000000,0.64256796,-1.28672004,-1.05957842,-10.90066051,10291009.21005011,0.00000000,0.00000000,0.00000000,7348085.28795838,0.00000000,0.00000000,-0.00000000,9135388.76920938,-0.38548348,2.06667839,1.69615239,0.07116331,-0.01075175,0.04419641,0.99642705
1.95307316,-0.99523878,0.08671874,0.02678324,0.03552896,0.05434236,0.09280783,-0.03415873,0.09280782,0.16594164,-0.07450990,-0.03415872,-0.07450990,0.47438237,-0.06167240,-0.11559910,0.12016554,0.69494526,0.00000000,0.00000000,0.00000000,0.61448867,0.00000000,0.00000000,-0.00000000,0.64256796,-1.33446813,-0.99086672,-10.81939125,10291009.21005011,0.00000000,0.00000000,0.00000000,7348085.28795838,0.00000000,0.00000000,-0.00000000,9135388.76920938,-0.38653819,2.06716402,1.69736033,0.07144983,-0.01129703,0.04438836,0.99639198
1.97283329,-0.99508023,0.08826975,0.02837761,0.03490677,0.05455685,0.09312836,-0.03495120,0.09312835,0.16624110,-0.07527613,-0.03495121,-0.07527613,0.47483597,-0.09846157,-0.11548825,0.19529342,0.69494526,0.00000000,0.00000000,0.00000000,0.61448867,0.00000000,0.00000000,-0.00000000,0.64256796,-1.60414827,-0.77174366,-10.41791725,10291009.21005011,0.00000000,0.00000000,0.00000000,7348085.28795838,0.00000000,0.00000000,-0.00000000,9135388.76920938,-0.39044910,2.06888928,1.70219070,0.07248405,-0.01377234,0.04534652,0.99624298
1.98765338,-0.99491841,0.08997361,0.02955186,0.03418645,0.05468303,0.09344675,-0.03555037,0.09344676,0.16671076,-0.07580266,-0.03555037,-0.07580267,0.47535803,-0.12631360,-0.09897714,0.25694890,0.69494526,0.00000000,0.00000000,0.00000000,0.61448867,0.00000000,0.00000000,-0.00000000,0.64256796,-1.91428566,-0.76307631,-10.61587524,10291009.21005011,0.00000000,0.00000000,0.00000000,7348085.28795838,0.00000000,0.00000000,-0.00000000,9135388.76920938,-0.39326908,2.07006455,1.70605363,0.07339611,-0.01613549,0.04603870,0.99610898
1.99259316,-0.99485910,0.09063283,0.02989228,0.03387577,0.05469224,0.09355216,-0.03572986,0.09355216,0.16692707,-0.07594066,-0.03572986,-0.07594065,0.47557527,-0.13495867,-0.08224756,0.27753239,0.69494526,0.00000000,0.00000000,0.00000000,0.61448867,0.00000000,0.00000000,-0.00000000,0.64256796,-1.96916556,-0.78274590,-10.81879902,10291009.21005011,0.00000000,0.00000000,0.00000000,7348085.28795838,0.00000000,0.00000000,-0.00000000,9135388.76920938,-0.39410555,2.07040381,1.70726462,0.07373439,-0.01688275,0.04618272,0.99606494
2.00247322,-0.99473274,0.09209879,0.03041046,0.03316338,0.05466146,0.09376685,-0.03601713,0.09376687,0.16746520,-0.07611323,-0.03601712,-0.07611323,0.47608656,-0.15124399,-0.03562650,0.31170431,0.69494526,0.00000000,0.00000000,0.00000000,0.61448867,0.00000000,0.00000000,-0.00000000,0.64256796,-2.03125644,-0.77862006,-11.02170086,10291009.21005011,0.00000000,0.00000000,0.00000000,7348085.28795838,0.00000000,0.00000000,-0.00000000,9135388.76920938,-0.39671484,2.07144126,1.71123967,0.07509382,-0.01906065,0.04627075,0.99591999
2.00741325,-0.99466664,0.09288588,0.03059779,0.03277446,0.05462704,0.09387585,-0.03612852,0.09387585,0.16777759,-0.07614881,-0.03612852,-0.07614882,0.47637397,-0.15511439,-0.01831959,0.32471471,0.69494526,0.00000000,0.00000000,0.00000000,0.61448867,0.00000000,0.00000000,-0.00000000,0.64256796,-2.03112411,-0.79056501,-11.01692486,10291009.21005011,0.00000000,0.00000000,0.00000000,7348085.28795838,0.00000000,0.00000000,-0.00000000,9135388.76920938,-0.39673474,2.07144907,1.71127117,0.07510603,-0.01907565,0.04626914,0.99591886
2.01235329,-0.99460000,0.09369292,0.03073991,0.03236613,0.05457749,0.09398034,-0.03621980,0.09398035,0.16810956,-0.07615522,-0.03621980,-0.07615520,0.47667789,-0.16480575,0.00261335,0.33177602,0.69494526,0.00000000,0.00000000,0.00000000,0.61448867,0.00000000,0.00000000,-0.00000000,0.64256796,-1.95715582,-0.80888021,-11.01698780,10291009.21005011,0.00000000,0.00000000,0.00000000,7348085.28795838,0.00000000,0.00000000,-0.00000000,9135388.76920938,-0.39760222,2.07178873,1.71266242,0.07566380,-0.01969671,0.04616614,0.99586933
2.01729332,-0.99453419,0.09450883,0.03082149,0.03193603,0.05450559,0.09407563,-0.03628353,0.09407561,0.16846574,-0.07612266,-0.03628352,-0.07612267,0.47699771,-0.16866289,0.02571246,0.33399057,0.69494526,0.00000000,0.00000000,0.00000000,0.61448867,0.00000000,0.00000000,-0.00000000,0.64256796,-1.86889708,-0.82465577,-10.93827248,10291009.21005011,0.00000000,0.00000000,0.00000000,7348085.28795838,0.00000000,0.00000000,-0.00000000,9135388.76920938,-0.39853177,2.07215093,1.71419334,0.07631462,-0.02028117,0.04598714,0.99581622
2.02223335,-0.99446678,0.09533902,0.03085845,0.03152819,0.05444766,0.09418632,-0.03632547,0.09418631,0.16884090,-0.07606836,-0.03632548,-0.07606835,0.47732518,-0.15445869,0.04110722,0.33785751,0.69494526,0.00000000,0.00000000,0.00000000,0.61448867,0.00000000,0.00000000,-0.00000000,0.64256796,-1.84265029,-0.82676643,-10.73296452,10291009.21005011,0.00000000,0.00000000,0.00000000,7348085.28795838,0.00000000,0.00000000,-0.00000000,9135388.76920938,-0.40085251,2.07305164,1.71820704,0.07816669,-0.02129434,0.04524471,0.99568541
2.03952334,-0.99422932,0.09824332,0.03084855,0.03007789,0.05420919,0.09454135,-0.03641078,0.09454135,0.17015691,-0.07577342,-0.03641078,-0.07577341,0.47851382,-0.17908193,0.08398191,0.33249168,0.69494526,0.00000000,0.00000000,0.00000000,0.61448867,0.00000000,0.00000000,-0.00000000,0.64256796,-1.52060890,-0.77564132,-10.76654720,10291009.21005011,0.00000000,0.00000000,0.00000000,7348085.28795838,0.00000000,0.00000000,-0.00000000,9135388.76920938,-0.40186186,2.07344335,1.72004417,0.07907440,-0.02151794,0.04479369,0.99562932
2.05434318,-0.99401069,0.10083732,0.03069795,0.02884788,0.05402676,0.09487997,-0.03641923,0.09487997,0.17136880,-0.07540361,-0.03641922,-0.07540361,0.47960487,-0.17208414,0.05353727,0.36111986,0.69494526,0.00000000,0.00000000,0.00000000,0.61448867,0.00000000,0.00000000,-0.00000000,0.64256796,-1.44666684,-0.66030514,-10.12424469,10291009.21005011,0.00000000,0.00000000,0.00000000,7348085.28795838,0.00000000,0.00000000,-0.00000000,9135388.76920938,-0.40429605,2.07439288,1.72472812,0.08152415,-0.02146410,0.04338345,0.99549535
2.05928321,-0.99393165,0.10174127,0.03071203,0.02837918,0.05394799,0.09498172,-0.03645850,0.09498171,0.17178358,-0.07530135,-0.03645850,-0.07530133,0.47998875,-0.18532899,0.04603252,0.37188110,0.69494526,0.00000000,0.00000000,0.00000000,0.61448867,0.00000000,0.00000000,-0.00000000,0.64256796,-1.33444178,-0.62810796,-10.29617596,10291009.21005011,0.00000000,0.00000000,0.00000000,7348085.28795838,0.00000000,0.00000000,-0.00000000,9135388.76920938,-0.40503813,2.07468423,1.72623421,0.08234505,-0.02127487,0.04285196,0.99545486
2.06916327,-0.99375564,0.10367902,0.03076753,0.02745470,0.05384523,0.09524428,-0.03655584,0.09524428,0.17266944,-0.07512849,-0.03655585,-0.07512852,0.48079756,-0.18381137,0.03971800,0.40975291,0.69494526,0.00000000,0.00000000,0.00000000,0.61448867,0.00000000,0.00000000,-0.00000000,0.64256796,-1.27717578,-0.52965587,-10.39639282,10291009.21005011,0.00000000,0.00000000,0.00000000,7348085.28795838,0.00000000,0.00000000,-0.00000000,9135388.76920938,-0.40719429,2.07553663,1.73084856,0.08493773,-0.02025814,0.04099385,0.99533647
2.07410330,-0.99365830,0.10472053,0.03082052,0.02696069,0.05379781,0.09538601,-0.03662090,0.09538601,0.17313417,-0.07504347,-0.03662090,-0.07504348,0.48123214,-0.19758995,0.02957417,0.43025416,0.69494526,0.00000000,0.00000000,0.00000000,0.61448867,0.00000000,0.00000000,-0.00000000,0.64256796,-1.31535304,-0.48232546,-10.48704910,10291009.21005011,0.00000000,0.00000000,0.00000000,7348085.28795838,0.00000000,0.00000000,-0.00000000,9135388.76920938,-0.40726761,2.07556576,1.73101230,0.08503177,-0.02021162,0.04092198,0.99533235
2.07904334,-0.99355513,0.10580905,0.03090598,0.02640897,0.05373030,0.09551923,-0.03670720,0.09551922,0.17362153,-0.07496273,-0.03670721,-0.07496274,0.48169187,-0.21984502,0.02144922,0.44803755,0.69494526,0.00000000,0.00000000,0.00000000,0.61448867,0.00000000,0.00000000,-0.00000000,0.64256796,-1.32259071,-0.47046056,-10.60641479,10291009.21005011,0.00000000,0.00000000,0.00000000,7348085.28795838,0.00000000,0.00000000,-0.00000000,9135388.76920938,-0.40801314,2.07586247,1.73270530,0.08601199,-0.01969526,0.04015688,0.99528964
2.08398337,-0.99344629,0.10693861,0.03100586,0.02583280,0.05366233,0.09566125,-0.03680459,0.09566126,0.17414191,-0.07488868,-0.03680459,-0.07488867,0.48217130,-0.22251489,0.01562732,0.46695715,0.69494526,0.00000000,0.00000000,0.00000000,0.61448867,0.00000000,0.00000000,-0.00000000,0.64256796,-1.31543243,-0.45845240,-10.73055840,10291009.21005011,0.00000000,0.00000000,0.00000000,7348085.28795838,0.00000000,0.00000000,-0.00000000,9135388.76920938,-0.40870295,2.07613777,1.73431983,0.08695976,-0.01914912,0.03939192,0.99524851
2.08892314,-0.99333042,0.10811454,0.03109776,0.02527357,0.05362049,0.09583092,-0.03690077,0.09583092,0.17468780,-0.07482680,-0.03690078,-0.07482681,0.48266649,-0.21096175,0.02520340,0.48433404,0.69494526,0.00000000,0.00000000,0.00000000,0.61448867,0.00000000,0.00000000,-0.00000000,0.64256796,-1.30591452,-0.45357648,-10.88336372,10291009.21005011,0.00000000,0.00000000,0.00000000,7348085.28795838,0.00000000,0.00000000,-0.00000000,9135388.76920938,-0.40962924,2.07650822,1.73656969,0.08829838,-0.01833612,0.03828566,0.99518912
2.10374324,-0.99296731,0.11176588,0.03116190,0.02352127,0.05344687,0.09632335,-0.03710074,0.09632334,0.17642228,-0.07449185,-0.03710074,-0.07449186,0.48426208,-0.23513884,0.07491216,0.49305779,0.69494526,0.00000000,0.00000000,0.00000000,0.61448867,0.00000000,0.00000000,-0.00000000,0.64256796,-1.15805709,-0.70737880,-11.35643387,10291009.21005011,0.00000000,0.00000000,0.00000000,7348085.28795838,0.00000000,0.00000000,-0.00000000,9135388.76920938,-0.41163278,2.07730873,1.74183776,0.09148235,-0.01651353,0.03567731,0.99503036
2.12103322,-0.99255037,0.11590562,0.03104332,0.02111781,0.05294294,0.09664968,-0.03727378,0.09664970,0.17854360,-0.07383272,-0.03727377,-0.07383271,0.48624054,-0.32796920,0.10237577,0.45822694,0.69494526,0.00000000,0.00000000,0.00000000,0.61448867,0.00000000,0.00000000,-0.00000000,0.64256796,-1.10551035,-0.79513562,-11.08675671,10291009.21005011,0.00000000,0.00000000,0.00000000,7348085.28795838,0.00000000,0.00000000,-0.00000000,9135388.76920938,-0.41354323,2.07806045,1.74756051,0.09494448,-0.01504681,0.03304154,0.99482028
2.12597325,-0.99244756,0.11695827,0.03094308,0.02027690,0.05264875,0.09661656,-0.03730380,0.09661656,0.17918450,-0.07357678,-0.03730380,-0.07357678,0.48680808,-0.32393564,0.15134246,0.42534912,0.69494526,0.00000000,0.00000000,0.00000000,0.61448867,0.00000000,0.00000000,-0.00000000,0.64256796,-0.82872504,-0.64425761,-11.08678246,10291009.21005011,0.00000000,0.00000000,0.00000000,7348085.28795838,0.00000000,0.00000000,-0.00000000,9135388.76920938,-0.41388465,2.07819200,1.74867826,0.09561229,-0.01482874,0.03255964,0.99477549
2.14079335,-0.99216503,0.11959147,0.03067513,0.01911794,0.05256876,0.09703474,-0.03730151,0.09703475,0.18066854,-0.07309424,-0.03730151,-0.07309423,0.48809884,-0.12687140,0.05824120,0.29522799,0.69494526,0.00000000,0.00000000,0.00000000,0.61448867,0.00000000,0.00000000,-0.00000000,0.64256796,-0.88111281,-0.72118986,-9.61610699,10291009.21005011,0.00000000,0.00000000,0.00000000,7348085.28795838,0.00000000,0.00000000,-0.00000000,9135388.76920938,-0.41560428,2.07882913,1.75490012,0.09920804,-0.01395636,0.03008382,0.99451393
2.14573338,-0.99209630,0.12024322,0.03060169,0.01870825,0.05246182,0.09705733,-0.03730780,0.09705735,0.18101547,-0.07293751,-0.03730780,-0.07293749,0.48845707,-0.17822066,0.06614857,0.25667972,0.69494526,0.00000000,0.00000000,0.00000000,0.61448867,0.00000000,0.00000000,-0.00000000,0.64256796,-0.85247993,-0.81873894,-10.22741985,10291009.21005011,0.00000000,0.00000000,0.00000000,7348085.28795838,0.00000000,0.00000000,-0.00000000,9135388.76920938,-0.41600180,2.07896737,1.75651259,0.10009191,-0.01380574,0.02949813,0.99444501
2.15067316,-0.99203622,0.12081089,0.03052246,0.01836418,0.05237810,0.09709905,-0.03730654,0.09709903,0.18137366,-0.07281085,-0.03730652,-0.07281082,0.48877415,-0.13369369,0.07871544,0.22706581,0.69494526,0.00000000,0.00000000,0.00000000,0.61448867,0.00000000,0.00000000,-0.00000000,0.64256796,-1.01706648,-0.95412326,-10.17969418,10291009.21005011,0.00000000,0.00000000,0.00000000,7348085.28795838,0.00000000,0.00000000,-0.00000000,9135388.76920938,-0.41647038,2.07912379,1.75852150,0.10115530,-0.01364916,0.02880092,0.99436000
2.15561319,-0.99198234,0.12131136,0.03042564,0.01813391,0.05234819,0.09716747,-0.03728559,0.09716747,0.18167045,-0.07269322,-0.03728559,-0.07269321,0.48904974,-0.10391120,0.07640627,0.19791873,0.69494526,0.00000000,0.00000000,0.00000000,0.61448867,0.00000000,0.00000000,-0.00000000,0.64256796,-1.13875663,-1.00074768,-10.04357529,10291009.21005011,0.00000000,0.00000000,0.00000000,7348085.28795838,0.00000000,0.00000000,-0.00000000,9135388.76920938,-0.41692845,2.07926810,1.76061815,0.10221107,-0.01351233,0.02811334,0.99427358
2.17043329,-0.99189299,0.12229740,0.02991993,0.01721667,0.05191007,0.09701384,-0.03711869,0.09701383,0.18240296,-0.07213297,-0.03711869,-0.07213296,0.48975822,-0.12722087,0.12512896,0.09624337,0.69494526,0.00000000,0.00000000,0.00000000,0.61448867,0.00000000,0.00000000,-0.00000000,0.64256796,-1.04583192,-0.81837684,-10.46128559,10291009.21005011,0.00000000,0.00000000,0.00000000,7348085.28795838,0.00000000,0.00000000,-0.00000000,9135388.76920938,-0.41833245,2.07962540,1.76821652,0.10543400,-0.01309170,0.02598743,0.99400047
2.18525338,-0.99188781,0.12260260,0.02913571,0.01668215,0.05148164,0.09677696,-0.03676181,0.09677696,0.18288127,-0.07147670,-0.03676180,-0.07147671,0.49017774,-0.06554859,0.13737749,0.00389585,0.69494526,0.00000000,0.00000000,0.00000000,0.61448867,0.00000000,0.00000000,-0.00000000,0.64256796,-1.06484103,-0.72073466,-9.98366928,10291009.21005011,0.00000000,0.00000000,0.00000000,7348085.28795838,0.00000000,0.00000000,-0.00000000,9135388.76920938,-0.41928004,2.07972072,1.77512030,0.10740885,-0.01264944,0.02453925,0.99383155
2.19019316,-0.99190420,0.12255245,0.02885795,0.01655842,0.05132853,0.09666303,-0.03662589,0.09666304,0.18296042,-0.07125582,-0.03662587,-0.07125579,0.49025331,-0.06386925,0.13688373,-0.02532516,0.69494526,0.00000000,0.00000000,0.00000000,0.61448867,0.00000000,0.00000000,-0.00000000,0.64256796,-1.00280309,-0.74394840,-10.15563107,10291009.21005011,0.00000000,0.00000000,0.00000000,7348085.28795838,0.00000000,0.00000000,-0.00000000,9135388.76920938,-0.41934153,2.07971893,1.77565805,0.10752301,-0.01260953,0.02444419,0.99382206
2.20501325,-0.99199802,0.12207337,0.02779640,0.01629170,0.05080147,0.09622466,-0.03608672,0.09622466,0.18309555,-0.07049707,-0.03608672,-0.07049706,0.49036049,-0.05333596,0.17909719,-0.09121474,0.69494526,0.00000000,0.00000000,0.00000000,0.61448867,0.00000000,0.00000000,-0.00000000,0.64256796,-0.90735978,-0.70475966,-10.34665394,10291009.21005011,0.00000000,0.00000000,0.00000000,7348085.28795838,0.00000000,0.00000000,-0.00000000,9135388.76920938,-0.42007160,2.07953454,1.78376828,0.10861297,-0.01190756,0.02328040,0.99374013
2.20995329,-0.99203956,0.12183479,0.02740961,0.01620365,0.05059902,0.09604723,-0.03588668,0.09604723,0.18312215,-0.07021394,-0.03588668,-0.07021392,0.49037033,-0.04163083,0.17606626,-0.09984878,0.69494526,0.00000000,0.00000000,0.00000000,0.61448867,0.00000000,0.00000000,-0.00000000,0.64256796,-0.93360668,-0.69310266,-10.15085030,10291009.21005011,0.00000000,0.00000000,0.00000000,7348085.28795838,0.00000000,0.00000000,-0.00000000,9135388.76920938,-0.42015675,2.07947802,1.78507265,0.10868655,-0.01177629,0.02313589,0.99373703
2.21489332,-0.99208164,0.12158608,0.02702445,0.01614100,0.05041131,0.09587813,-0.03568524,0.09587812,0.18313314,-0.06993845,-0.03568524,-0.06993845,0.49037178,-0.03840823,0.17294722,-0.10471173,0.69494526,0.00000000,0.00000000,0.00000000,0.61448867,0.00000000,0.00000000,-0.00000000,0.64256796,-0.86448979,-0.69236797,-10.04584980,10291009.21005011,0.00000000,0.00000000,0.00000000,7348085.28795838,0.00000000,0.00000000,-0.00000000,9135388.76920938,-0.42027802,2.07937101,1.78719409,0.10875301,-0.01154882,0.02292292,0.99373736
2.22230324,-0.99215245,0.12115963,0.02647294,0.01590385,0.05002627,0.09552611,-0.03540429,0.09552611,0.18313544,-0.06949248,-0.03540429,-0.06949249,0.49037756,-0.08125769,0.16567777,-0.11783847,0.69494526,0.00000000,0.00000000,0.00000000,0.61448867,0.00000000,0.00000000,-0.00000000,0.64256796,-0.69985020,-0.65483850,-10.14380360,10291009.21005011,0.00000000,0.00000000,0.00000000,7348085.28795838,0.00000000,0.00000000,-0.00000000,9135388.76920938,-0.42038705,2.07923416,1.78950009,0.10875553,-0.01127903,0.02272027,0.99374484
2.23712334,-0.99231571,0.12009858,0.02538006,0.01554660,0.04929092,0.09483881,-0.03483593,0.09483882,0.18311839,-0.06867161,-0.03483593,-0.06867163,0.49029085,-0.03816746,0.16140919,-0.16210672,0.69494526,0.00000000,0.00000000,0.00000000,0.61448867,0.00000000,0.00000000,-0.00000000,0.64256796,-0.48510301,-0.56189072,-9.86928177,10291009.21005011,0.00000000,0.00000000,0.00000000,7348085.28795838,0.00000000,0.00000000,-0.00000000,9135388.76920938,-0.42061073,2.07855741,1.79801016,0.10823033,-0.01003173,0.02219151,0.99382750
2.25194318,-0.99251747,0.11866365,0.02421673,0.01554277,0.04867956,0.09419324,-0.03419811,0.09419324,0.18287164,-0.06791741,-0.03419811,-0.06791742,0.49001615,-0.02843676,0.15891011,-0.22324516,0.69494526,0.00000000,0.00000000,0.00000000,0.61448867,0.00000000,0.00000000,-0.00000000,0.64256796,-0.24166988,-0.70969212,-10.30887413,10291009.21005011,0.00000000,0.00000000,0.00000000,7348085.28795838,0.00000000,0.00000000,-0.00000000,9135388.76920938,-0.42062300,2.07773360,1.80576775,0.10714842,-0.00857504,0.02193451,0.99396406
2.25688321,-0.99259782,0.11807594,0.02378806,0.01555044,0.04844760,0.09394403,-0.03396144,0.09394402,0.18276751,-0.06764565,-0.03396145,-0.06764566,0.48988875,-0.00769466,0.15702942,-0.24321614,0.69494526,0.00000000,0.00000000,0.00000000,0.61448867,0.00000000,0.00000000,-0.00000000,0.64256796,-0.19633436,-0.75933385,-10.25403500,10291009.21005011,0.00000000,0.00000000,0.00000000,7348085.28795838,0.00000000,0.00000000,-0.00000000,9135388.76920938,-0.42061419,2.07760796,1.80682625,0.10696250,-0.00836264,0.02190859,0.99398647
2.26182324,-0.99268341,0.11743633,0.02336140,0.01557533,0.04821449,0.09368400,-0.03372291,0.09368400,0.18263049,-0.06737435,-0.03372291,-0.06737436,0.48974087,-0.00493518,0.14970619,-0.26487468,0.69494526,0.00000000,0.00000000,0.00000000,0.61448867,0.00000000,0.00000000,-0.00000000,0.64256796,-0.19872044,-0.76651865,-10.13466549,10291009.21005011,0.00000000,0.00000000,0.00000000,7348085.28795838,0.00000000,0.00000000,-0.00000000,9135388.76920938,-0.42058481,2.07729254,1.80938498,0.10647921,-0.00784605,0.02184652,0.99404394
2.26676327,-0.99277371,0.11674830,0.02295441,0.01559827,0.04797278,0.09340897,-0.03349371,0.09340897,0.18247075,-0.06711634,-0.03349372,-0.06711634,0.48957592,-0.00749053,0.14337860,-0.28275498,0.69494526,0.00000000,0.00000000,0.00000000,0.61448867,0.00000000,0.00000000,-0.00000000,0.64256796,-0.15341139,-0.76126659,-10.10842705,10291009.21005011,0.00000000,0.00000000,0.00000000,7348085.28795838,0.00000000,0.00000000,-0.00000000,9135388.76920938,-0.42054601,2.07696389,1.81192599,0.10595480,-0.00733632,0.02177930,0.99410534
2.27170330,-0.99286944,0.11600502,0.02257443,0.01560114,0.04771068,0.09310803,-0.03327770,0.09310804,0.18228840,-0.06686293,-0.03327770,-0.06686293,0.48939439,-0.01420420,0.12544056,-0.30500799,0.69494526,0.00000000,0.00000000,0.00000000,0.61448867,0.00000000,0.00000000,-0.00000000,0.64256796,-0.07944290,-0.73184997,-10.16574574,10291009.21005011,0.00000000,0.00000000,0.00000000,7348085.28795838,0.00000000,0.00000000,-0.00000000,9135388.76920938,-0.42049658,2.07660026,1.81461799,0.10535450,-0.00680959,0.02169521,0.99417472
2.27664334,-0.99296939,0.11521504,0.02221814,0.01560878,0.04744632,0.09279997,-0.03307360,0.09279998,0.18209122,-0.06663580,-0.03307360,-0.06663578,0.48919547,-0.01145808,0.11758904,-0.32396856,0.69494526,0.00000000,0.00000000,0.00000000,0.61448867,0.00000000,0.00000000,-0.00000000,0.64256796,-0.01732541,-0.66915375,-10.28509140,10291009.21005011,0.00000000,0.00000000,0.00000000,7348085.28795838,0.00000000,0.00000000,-0.00000000,9135388.76920938,-0.42044491,2.07625105,1.81710608,0.10476049,-0.00634102,0.02160803,0.99424249
2.28158337,-0.99307173,0.11439154,0.02186524,0.01565358,0.04720018,0.09250515,-0.03286900,0.09250517,0.18188386,-0.06642763,-0.03286900,-0.06642761,0.48897993,0.01086326,0.11309038,-0.33474145,0.69494526,0.00000000,0.00000000,0.00000000,0.61448867,0.00000000,0.00000000,-0.00000000,0.64256796,0.04471268,-0.60645032,-10.41399670,10291009.21005011,0.00000000,0.00000000,0.00000000,7348085.28795838,0.00000000,0.00000000,-0.00000000,9135388.76920938,-0.42038189,2.07584583,1.81989432,0.10405153,-0.00584269,0.02150569,0.99432220
2.28652314,-0.99317640,0.11353878,0.02149824,0.01572955,0.04696524,0.09221445,-0.03265512,0.09221444,0.18165507,-0.06622156,-0.03265512,-0.06622158,0.48875275,0.01833246,0.11264881,-0.34933168,0.69494526,0.00000000,0.00000000,0.00000000,0.61448867,0.00000000,0.00000000,-0.00000000,0.64256796,0.03752796,-0.56117803,-10.52855110,10291009.21005011,0.00000000,0.00000000,0.00000000,7348085.28795838,0.00000000,0.00000000,-0.00000000,9135388.76920938,-0.42032062,2.07546078,1.82246111,0.10335963,-0.00541421,0.02141256,0.99439880
2.30134324,-0.99350393,0.11079849,0.02048891,0.01593193,0.04622675,0.09128780,-0.03205937,0.09128781,0.18089712,-0.06565654,-0.03205936,-0.06565656,0.48802182,0.02801392,0.10487564,-0.38071350,0.69494526,0.00000000,0.00000000,0.00000000,0.61448867,0.00000000,0.00000000,-0.00000000,0.64256796,-0.04359877,-0.53339183,-10.81020069,10291009.21005011,0.00000000,0.00000000,0.00000000,7348085.28795838,0.00000000,0.00000000,-0.00000000,9135388.76920938,-0.42007266,2.07383497,1.83265582,0.10027399,-0.00401771,0.02113224,0.99472731
2.31616334,-0.99385667,0.10777564,0.01927629,0.01617881,0.04543036,0.09028970,-0.03135636,0.09028969,0.18010078,-0.06501698,-0.03135636,-0.06501698,0.48723459,0.02633814,0.14169667,-0.43204523,0.69494526,0.00000000,0.00000000,0.00000000,0.61448867,0.00000000,0.00000000,-0.00000000,0.64256796,0.04237955,-0.57306814,-10.97502327,10291009.21005011,0.00000000,0.00000000,0.00000000,7348085.28795838,0.00000000,0.00000000,-0.00000000,9135388.76920938,-0.41989756,2.07237684,1.84122247,0.09734128,-0.00309286,0.02108790,0.99502282
2.32357325,-0.99404567,0.10610691,0.01863042,0.01635287,0.04502851,0.08977591,-0.03097920,0.08977591,0.17967394,-0.06468366,-0.03097919,-0.06468367,0.48679866,0.05351464,0.13515580,-0.46336617,0.69494526,0.00000000,0.00000000,0.00000000,0.61448867,0.00000000,0.00000000,-0.00000000,0.64256796,0.02079894,-0.61385614,-10.49994469,10291009.21005011,0.00000000,0.00000000,0.00000000,7348085.28795838,0.00000000,0.00000000,-0.00000000,9135388.76920938,-0.41989394,2.07234013,1.84143339,0.09726571,-0.00307176,0.02108936,0.99503024
2.32851329,-0.99417609,0.10493028,0.01818807,0.01651427,0.04477452,0.08943583,-0.03071994,0.08943582,0.17935390,-0.06447642,-0.03071994,-0.06447643,0.48648691,0.05934200,0.14206021,-0.48174412,0.69494526,0.00000000,0.00000000,0.00000000,0.61448867,0.00000000,0.00000000,-0.00000000,0.64256796,0.10683018,-0.62728477,-10.41165924,10291009.21005011,0.00000000,0.00000000,0.00000000,7348085.28795838,0.00000000,0.00000000,-0.00000000,9135388.76920938,-0.41984878,2.07184014,1.84428688,0.09622842,-0.00279154,0.02112098,0.99513125
2.33345332,-0.99431175,0.10369440,0.01772964,0.01665175,0.04449186,0.08906446,-0.03045256,0.08906446,0.17902232,-0.06425122,-0.03045256,-0.06425122,0.48616733,0.04983626,0.14723330,-0.50448785,0.69494526,0.00000000,0.00000000,0.00000000,0.61448867,0.00000000,0.00000000,-0.00000000,0.64256796,0.19511515,-0.59294450,-10.40690613,10291009.21005011,0.00000000,0.00000000,0.00000000,7348085.28795838,0.00000000,0.00000000,-0.00000000,9135388.76920938,-0.41981251,2.07135148,1.84704583,0.09519983,-0.00252767,0.02117248,0.99522979
2.33839335,-0.99444777,0.10243779,0.01727500,0.01678544,0.04420627,0.08869038,-0.03018730,0.08869038,0.17869464,-0.06402579,-0.03018729,-0.06402580,0.48584700,0.05415309,0.13886680,-0.50990215,0.69494526,0.00000000,0.00000000,0.00000000,0.61448867,0.00000000,0.00000000,-0.00000000,0.64256796,0.17117491,-0.54306978,-10.16332531,10291009.21005011,0.00000000,0.00000000,0.00000000,7348085.28795838,0.00000000,0.00000000,-0.00000000,9135388.76920938,-0.41978331,2.07084256,1.84989254,0.09411412,-0.00226050,0.02124669,0.99533211
2.34333338,-0.99458337,0.10115416,0.01687619,0.01694009,0.04393954,0.08832677,-0.02994925,0.08832676,0.17834175,-0.06383464,-0.02994926,-0.06383464,0.48551648,0.05590390,0.11838052,-0.52131403,0.69494526,0.00000000,0.00000000,0.00000000,0.61448867,0.00000000,0.00000000,-0.00000000,0.64256796,0.08050388,-0.47003871,-9.84088421,10291009.21005011,0.00000000,0.00000000,0.00000000,7348085.28795838,0.00000000,0.00000000,-0.00000000,9135388.76920938,-0.41976197,2.07029918,1.85290655,0.09294057,-0.00198171,0.02134783,0.99544080
2.34827316,-0.99471700,0.09986269,0.01654537,0.01708330,0.04367758,0.08796258,-0.02974676,0.08796258,0.17797113,-0.06368060,-0.02974676,-0.06368060,0.48518593,0.04968883,0.09517730,-0.52084661,0.69494526,0.00000000,0.00000000,0.00000000,0.61448867,0.00000000,0.00000000,-0.00000000,0.64256796,0.01128108,-0.36098072,-9.68077469,10291009.21005011,0.00000000,0.00000000,0.00000000,7348085.28795838,0.00000000,0.00000000,-0.00000000,9135388.76920938,-0.41975149,2.06979505,1.85568334,0.09184016,-0.00172723,0.02146087,0.99554097
2.35321319,-0.99484676,0.09858317,0.01625095,0.01723959,0.04343520,0.08761696,-0.02956412,0.08761697,0.17760216,-0.06356014,-0.02956411,-0.06356012,0.48485915,0.05666580,0.07841710,-0.51491632,0.69494526,0.00000000,0.00000000,0.00000000,0.61448867,0.00000000,0.00000000,-0.00000000,0.64256796,-0.04837092,-0.24227844,-9.73076248,10291009.21005011,0.00000000,0.00000000,0.00000000,7348085.28795838,0.00000000,0.00000000,-0.00000000,9135388.76920938,-0.41975016,2.06929385,1.85842869,0.09073655,-0.00147663,0.02159069,0.99563976
2.35815322,-0.99497175,0.09733713,0.01594969,0.01738720,0.04319627,0.08727735,-0.02938090,0.08727735,0.17724345,-0.06344480,-0.02938090,-0.06344481,0.48454802,0.05552868,0.08260377,-0.49759072,0.69494526,0.00000000,0.00000000,0.00000000,0.61448867,0.00000000,0.00000000,-0.00000000,0.64256796,-0.10563685,-0.11639133,-9.96697140,10291009.21005011,0.00000000,0.00000000,0.00000000,7348085.28795838,0.00000000,0.00000000,-0.00000000,9135388.76920938,-0.41975839,2.06878417,1.86120812,0.08960747,-0.00122267,0.02173878,0.99573914
2.37297332,-0.99530745,0.09394300,0.01503548,0.01765721,0.04246497,0.08629396,-0.02884152,0.08629396,0.17634528,-0.06303481,-0.02884152,-0.06303484,0.48376214,0.04732348,0.08774053,-0.42400275,0.69494526,0.00000000,0.00000000,0.00000000,0.61448867,0.00000000,0.00000000,-0.00000000,0.64256796,-0.36089450,0.06707373,-9.93081856,10291009.21005011,0.00000000,0.00000000,0.00000000,7348085.28795838,0.00000000,0.00000000,-0.00000000,9135388.76920938,-0.41986203,2.06706451,1.87053264,0.08581171,-0.00035228,0.02232190,0.99606122
2.38779316,-0.99557382,0.09118170,0.01424723,0.01776658,0.04181369,0.08545546,-0.02838773,0.08545546,0.17568478,-0.06266416,-0.02838773,-0.06266416,0.48318890,0.02791449,0.10275089,-0.33958178,0.69494526,0.00000000,0.00000000,0.00000000,0.61448867,0.00000000,0.00000000,-0.00000000,0.64256796,-0.47078654,-0.12022173,-9.93333149,10291009.21005011,0.00000000,0.00000000,0.00000000,7348085.28795838,0.00000000,0.00000000,-0.00000000,9135388.76920938,-0.42006138,2.06553765,1.87880250,0.08257292,0.00047705,0.02287451,0.99632236
2.39520334,-0.99568838,0.09001724,0.01372518,0.01769683,0.04144786,0.08503621,-0.02810462,0.08503621,0.17549446,-0.06238029,-0.02810463,-0.06238028,0.48299437,0.00855461,0.12777505,-0.30169801,0.69494526,0.00000000,0.00000000,0.00000000,0.61448867,0.00000000,0.00000000,-0.00000000,0.64256796,-0.45636415,-0.30384809,-9.99080753,10291009.21005011,0.00000000,0.00000000,0.00000000,7348085.28795838,0.00000000,0.00000000,-0.00000000,9135388.76920938,-0.42014072,2.06508957,1.88123634,0.08166710,0.00073895,0.02302578,0.99639337
2.40014337,-0.99575990,0.08929925,0.01337770,0.01757516,0.04117387,0.08473704,-0.02791772,0.08473704,0.17540108,-0.06215939,-0.02791771,-0.06215936,0.48289342,-0.01905353,0.12906298,-0.28878324,0.69494526,0.00000000,0.00000000,0.00000000,0.61448867,0.00000000,0.00000000,-0.00000000,0.64256796,-0.39909822,-0.45121449,-9.91219521,10291009.21005011,0.00000000,0.00000000,0.00000000,7348085.28795838,0.00000000,0.00000000,-0.00000000,9135388.76920938,-0.42025126,2.06454207,1.88421744,0.08059582,0.00107315,0.02319518,0.99647636
2.40508314,-0.99582893,0.08861253,0.01301237,0.01741503,0.04088380,0.08443213,-0.02772349,0.08443210,0.17534756,-0.06192510,-0.02772350,-0.06192510,0.48280830,-0.02600597,0.13529778,-0.27795634,0.69494526,0.00000000,0.00000000,0.00000000,0.61448867,0.00000000,0.00000000,-0.00000000,0.64256796,-0.20829123,-0.51841158,-9.87179661,10291009.21005011,0.00000000,0.00000000,0.00000000,7348085.28795838,0.00000000,0.00000000,-0.00000000,9135388.76920938,-0.42038220,2.06397307,1.88732461,0.07952449,0.00143480,0.02334334,0.99655852
2.41002318,-0.99589789,0.08794130,0.01262351,0.01715815,0.04053823,0.08407806,-0.02751933,0.08407806,0.17531448,-0.06165654,-0.02751933,-0.06165653,0.48274493,-0.07913240,0.14789270,-0.26291959,0.69494526,0.00000000,0.00000000,0.00000000,0.61448867,0.00000000,0.00000000,-0.00000000,0.64256796,0.00884206,-0.47794372,-9.73819065,10291009.21005011,0.00000000,0.00000000,0.00000000,7348085.28795838,0.00000000,0.00000000,-0.00000000,9135388.76920938,-0.42051864,2.06344462,1.89021894,0.07856776,0.00178106,0.02344527,0.99663145
2.41496321,-0.99596345,0.08729444,0.01219909,0.01696162,0.04023280,0.08377403,-0.02729608,0.08377403,0.17533192,-0.06138430,-0.02729608,-0.06138430,0.48268245,-0.04892828,0.14504373,-0.25906509,0.69494526,0.00000000,0.00000000,0.00000000,0.61448867,0.00000000,0.00000000,-0.00000000,0.64256796,0.04476563,-0.44894052,-9.28215790,10291009.21005011,0.00000000,0.00000000,0.00000000,7348085.28795838,0.00000000,0.00000000,-0.00000000,9135388.76920938,-0.42066479,2.06293216,1.89303388,0.07767520,0.00212393,0.02350189,0.99669941
2.41990324,-0.99602151,0.08670963,0.01184900,0.01679743,0.03996996,0.08350214,-0.02710809,0.08350214,0.17531152,-0.06113058,-0.02710809,-0.06113060,0.48262780,-0.05880534,0.10075297,-0.23160372,0.69494526,0.00000000,0.00000000,0.00000000,0.61448867,0.00000000,0.00000000,-0.00000000,0.64256796,0.01613267,-0.37525731,-8.82605553,10291009.21005011,0.00000000,0.00000000,0.00000000,7348085.28795838,0.00000000,0.00000000,-0.00000000,9135388.76920938,-0.42082419,2.06242146,1.89584727,0.07682035,0.00246920,0.02351121,0.99676465
2.42484327,-0.99607939,0.08612906,0.01158832,0.01653321,0.03966267,0.08318133,-0.02696591,0.08318134,0.17527071,-0.06089699,-0.02696591,-0.06089700,0.48258417,-0.11424584,0.06600000,-0.22805138,0.69494526,0.00000000,0.00000000,0.00000000,0.61448867,0.00000000,0.00000000,-0.00000000,0.64256796,0.03752796,-0.26285473,-8.72091770,10291009.21005011,0.00000000,0.00000000,0.00000000,7348085.28795838,0.00000000,0.00000000,-0.00000000,9135388.76920938,-0.42134159,2.06099896,1.90372000,0.07462607,0.00339896,0.02331571,0.99693318
2.43966337,-0.99622780,0.08463901,0.01095373,0.01570111,0.03880350,0.08230810,-0.02662393,0.08230810,0.17527816,-0.06034395,-0.02662393,-0.06034396,0.48250923,-0.12175775,0.06011574,-0.18370714,0.69494526,0.00000000,0.00000000,0.00000000,0.61448867,0.00000000,0.00000000,-0.00000000,0.64256796,0.02318501,-0.05059662,-9.03586006,10291009.21005011,0.00000000,0.00000000,0.00000000,7348085.28795838,0.00000000,0.00000000,-0.00000000,9135388.76920938,-0.42173371,2.06008171,1.90881870,0.07335921,0.00392749,0.02304795,0.99703149
2.45448321,-0.99635309,0.08340878,0.01037095,0.01469465,0.03792182,0.08143769,-0.02631288,0.08143770,0.17542814,-0.05977288,-0.02631287,-0.05977286,0.48251709,-0.09107024,0.05620920,-0.15494353,0.69494526,0.00000000,0.00000000,0.00000000,0.61448867,0.00000000,0.00000000,-0.00000000,0.64256796,0.05176503,0.16211541,-8.62741375,10291009.21005011,0.00000000,0.00000000,0.00000000,7348085.28795838,0.00000000,0.00000000,-0.00000000,9135388.76920938,-0.42250633,2.05853081,1.91747329,0.07144152,0.00465335,0.02242300,0.99718186
2.45942324,-0.99639064,0.08302423,0.01021824,0.01443065,0.03768189,0.08119635,-0.02622927,0.08119635,0.17546409,-0.05962214,-0.02622928,-0.05962216,0.48251255,-0.06608339,0.04384361,-0.15436376,0.69494526,0.00000000,0.00000000,0.00000000,0.61448867,0.00000000,0.00000000,-0.00000000,0.64256796,0.03267638,0.12850253,-8.33138275,10291009.21005011,0.00000000,0.00000000,0.00000000,7348085.28795838,0.00000000,0.00000000,-0.00000000,9135388.76920938,-0.42262267,2.05831957,1.91865524,0.07119774,0.00473519,0.02232694,0.99720107
2.46436327,-0.99642783,0.08263069,0.01009869,0.01420429,0.03746596,0.08097059,-0.02616148,0.08097058,0.17546636,-0.05949821,-0.02616148,-0.05949821,0.48249870,-0.06332661,0.02862361,-0.16143670,0.69494526,0.00000000,0.00000000,0.00000000,0.61448867,0.00000000,0.00000000,-0.00000000,0.64256796,0.07570525,0.05018943,-8.31237602,10291009.21005011,0.00000000,0.00000000,0.00000000,7348085.28795838,0.00000000,0.00000000,-0.00000000,9135388.76920938,-0.42291594,2.05780745,1.92152383,0.07061827,0.00491612,0.02208879,0.99724670
2.46930330,-0.99646854,0.08219412,0.00998219,0.01396358,0.03723507,0.08072553,-0.02609473,0.08072553,0.17545786,-0.05938309,-0.02609473,-0.05938309,0.48247747,-0.06964870,0.03067119,-0.17876739,0.69494526,0.00000000,0.00000000,0.00000000,0.61448867,0.00000000,0.00000000,-0.00000000,0.64256796,0.19739531,-0.02251555,-8.46054745,10291009.21005011,0.00000000,0.00000000,0.00000000,7348085.28795838,0.00000000,0.00000000,-0.00000000,9135388.76920938,-0.42322003,2.05730359,1.92435078,0.07005853,0.00506962,0.02185193,0.99729063
2.47424334,-0.99651146,0.08171903,0.00982723,0.01379773,0.03703500,0.08051182,-0.02600785,0.08051181,0.17545368,-0.05927929,-0.02600784,-0.05927926,0.48243914,-0.03202222,0.03842732,-0.19488293,0.69494526,0.00000000,0.00000000,0.00000000,0.61448867,0.00000000,0.00000000,-0.00000000,0.64256796,0.30243582,-0.12642655,-8.47503185,10291009.21005011,0.00000000,0.00000000,0.00000000,7348085.28795838,0.00000000,0.00000000,-0.00000000,9135388.76920938,-0.42352898,2.05681605,1.92709066,0.06952006,0.00519453,0.02162600,0.99733259
2.47918337,-0.99655819,0.08117942,0.00966593,0.01371920,0.03686982,0.08032074,-0.02591462,0.08032074,0.17539736,-0.05918582,-0.02591463,-0.05918585,0.48237517,-0.01442004,0.03494200,-0.22514939,0.69494526,0.00000000,0.00000000,0.00000000,0.61448867,0.00000000,0.00000000,-0.00000000,0.64256796,0.35015741,-0.20945542,-8.46797848,10291009.21005011,0.00000000,0.00000000,0.00000000,7348085.28795838,0.00000000,0.00000000,-0.00000000,9135388.76920938,-0.42385941,2.05631828,1.92989280,0.06896637,0.00529752,0.02140456,0.99737527
2.48659329,-0.99663836,0.08022425,0.00947127,0.01365006,0.03662715,0.08001855,-0.02579385,0.08001855,0.17523347,-0.05907938,-0.02579385,-0.05907937,0.48223973,-0.00727785,0.01768518,-0.27225239,0.69494526,0.00000000,0.00000000,0.00000000,0.61448867,0.00000000,0.00000000,-0.00000000,0.64256796,0.46225029,-0.25123027,-8.68296814,10291009.21005011,0.00000000,0.00000000,0.00000000,7348085.28795838,0.00000000,0.00000000,-0.00000000,9135388.76920938,-0.42418113,2.05585413,1.93251060,0.06843931,0.00537002,0.02121132,0.99741531
2.49153332,-0.99669772,0.07950405,0.00933179,0.01362602,0.03646108,0.07980489,-0.02570703,0.07980489,0.17509719,-0.05902079,-0.02570703,-0.05902078,0.48212985,-0.00088505,0.02249457,-0.29332896,0.69494526,0.00000000,0.00000000,0.00000000,0.61448867,0.00000000,0.00000000,-0.00000000,0.64256796,0.59348464,-0.23314463,-8.85970879,10291009.21005011,0.00000000,0.00000000,0.00000000,7348085.28795838,0.00000000,0.00000000,-0.00000000,9135388.76920938,-0.42453000,2.05537070,1.93524268,0.06787112,0.00541949,0.02102829,0.99745774
2.50635316,-0.99689782,0.07697634,0.00902660,0.01370888,0.03599567,0.07915402,-0.02549157,0.07915402,0.17452448,-0.05892220,-0.02549156,-0.05892218,0.48170402,0.03041471,-0.03078656,-0.37131018,0.69494526,0.00000000,0.00000000,0.00000000,0.61448867,0.00000000,0.00000000,-0.00000000,0.64256796,0.61259973,-0.13748291,-8.43703651,10291009.21005011,0.00000000,0.00000000,0.00000000,7348085.28795838,0.00000000,0.00000000,-0.00000000,9135388.76920938,-0.42582981,2.05371636,1.94465029,0.06565916,0.00536913,0.02060778,0.99761484
2.52117325,-0.99712998,0.07382075,0.00914306,0.01409740,0.03563283,0.07851683,-0.02547574,0.07851682,0.17359568,-0.05917195,-0.02547574,-0.05917196,0.48110182,0.08431320,-0.04807049,-0.45562277,0.69494526,0.00000000,0.00000000,0.00000000,0.61448867,0.00000000,0.00000000,-0.00000000,0.64256796,0.80340672,0.11750915,-8.93113327,10291009.21005011,0.00000000,0.00000000,0.00000000,7348085.28795838,0.00000000,0.00000000,-0.00000000,9135388.76920938,-0.42695743,2.05243476,1.95205447,0.06351449,0.00513457,0.02056409,0.99775581
2.52611329,-0.99721116,0.07265348,0.00922257,0.01436493,0.03557050,0.07834531,-0.02548849,0.07834532,0.17321181,-0.05930177,-0.02548849,-0.05930178,0.48086360,0.11423277,-0.07878307,-0.47348056,0.69494526,0.00000000,0.00000000,0.00000000,0.61448867,0.00000000,0.00000000,-0.00000000,0.64256796,0.65313667,0.21616074,-8.80440140,10291009.21005011,0.00000000,0.00000000,0.00000000,7348085.28795838,0.00000000,0.00000000,-0.00000000,9135388.76920938,-0.42722331,2.05215089,1.95371809,0.06297255,0.00506560,0.02059386,0.99778990
2.53105332,-0.99729258,0.07143898,0.00939545,0.01468704,0.03553950,0.07819053,-0.02554733,0.07819051,0.17276757,-0.05949064,-0.02554733,-0.05949064,0.48060695,0.13146920,-0.11541089,-0.48976073,0.69494526,0.00000000,0.00000000,0.00000000,0.61448867,0.00000000,0.00000000,-0.00000000,0.64256796,0.44077551,0.27836621,-8.72542286,10291009.21005011,0.00000000,0.00000000,0.00000000,7348085.28795838,0.00000000,0.00000000,-0.00000000,9135388.76920938,-0.42765137,2.05170799,1.95633827,0.06207183,0.00494648,0.02067159,0.99784533
2.53599335,-0.99737412,0.07019170,0.00961570,0.01501812,0.03551282,0.07803134,-0.02563064,0.07803135,0.17229362,-0.05971974,-0.02563065,-0.05971973,0.48034386,0.13581291,-0.12693057,-0.50060156,0.69494526,0.00000000,0.00000000,0.00000000,0.61448867,0.00000000,0.00000000,-0.00000000,0.64256796,0.27374989,0.32195556,-8.94015503,10291009.21005011,0.00000000,0.00000000,0.00000000,7348085.28795838,0.00000000,0.00000000,-0.00000000,9135388.76920938,-0.42806021,2.05130098,1.95877824,0.06117992,0.00482487,0.02077866,0.99789879
2.54093338,-0.99745375,0.06894023,0.00982344,0.01538667,0.03550502,0.07789073,-0.02570965,0.07789073,0.17182401,-0.05996448,-0.02570965,-0.05996448,0.48007955,0.15695240,-0.11566856,-0.50321998,0.69494526,0.00000000,0.00000000,0.00000000,0.61448867,0.00000000,0.00000000,-0.00000000,0.64256796,0.11149644,0.35604876,-9.35067272,10291009.21005011,0.00000000,0.00000000,0.00000000,7348085.28795838,0.00000000,0.00000000,-0.00000000,9135388.76920938,-0.42847068,2.05090777,1.96117115,0.06025444,0.00469654,0.02091680,0.99795282
2.54587316,-0.99753076,0.06770370,0.00998667,0.01577685,0.03550725,0.07776009,-0.02576851,0.07776010,0.17136004,-0.06019618,-0.02576851,-0.06019617,0.47982231,0.16526501,-0.09350086,-0.49285812,0.69494526,0.00000000,0.00000000,0.00000000,0.61448867,0.00000000,0.00000000,-0.00000000,0.64256796,-0.06984565,0.38039494,-9.81132793,10291009.21005011,0.00000000,0.00000000,0.00000000,7348085.28795838,0.00000000,0.00000000,-0.00000000,9135388.76920938,-0.42891335,2.05050079,1.96369309,0.05922745,0.00455282,0.02109672,0.99801118
2.55081319,-0.99760520,0.06649808,0.01010975,0.01611328,0.03548199,0.07760514,-0.02580786,0.07760514,0.17091462,-0.06038367,-0.02580786,-0.06038367,0.47958599,0.13597261,-0.07540034,-0.48044013,0.69494526,0.00000000,0.00000000,0.00000000,0.61448867,0.00000000,0.00000000,-0.00000000,0.64256796,-0.24649498,0.40957165,-10.16932487,10291009.21005011,0.00000000,0.00000000,0.00000000,7348085.28795838,0.00000000,0.00000000,-0.00000000,9135388.76920938,-0.42933179,2.05013212,1.96602591,0.05823525,0.00441338,0.02129232,0.99806604
2.55575322,-0.99767685,0.06533237,0.01021459,0.01637791,0.03542406,0.07742743,-0.02583829,0.07742743,0.17051361,-0.06053507,-0.02583829,-0.06053508,0.47937266,0.11626091,-0.06719666,-0.46369747,0.69494526,0.00000000,0.00000000,0.00000000,0.61448867,0.00000000,0.00000000,-0.00000000,0.64256796,-0.39920408,0.41989928,-10.25755882,10291009.21005011,0.00000000,0.00000000,0.00000000,7348085.28795838,0.00000000,0.00000000,-0.00000000,9135388.76920938,-0.42978175,2.04975290,1.96848383,0.05715141,0.00426111,0.02152622,0.99812433
2.57304321,-0.99789888,0.06164430,0.01019196,0.01714599,0.03517289,0.07683139,-0.02576635,0.07683139,0.16941574,-0.06085506,-0.02576635,-0.06085504,0.47876970,0.09849548,0.02882509,-0.39586206,0.69494526,0.00000000,0.00000000,0.00000000,0.61448867,0.00000000,0.00000000,-0.00000000,0.64256796,-0.46593496,0.44544217,-10.23599625,10291009.21005011,0.00000000,0.00000000,0.00000000,7348085.28795838,0.00000000,0.00000000,-0.00000000,9135388.76920938,-0.43134917,2.04856976,1.97669499,0.05332787,0.00373997,0.02247244,0.99831715
2.58786330,-0.99806494,0.05885359,0.00976257,0.01753399,0.03484439,0.07628676,-0.02550891,0.07628675,0.16878836,-0.06081204,-0.02550891,-0.06081203,0.47841023,0.08873180,0.04763825,-0.35686919,0.69494526,0.00000000,0.00000000,0.00000000,0.61448867,0.00000000,0.00000000,-0.00000000,0.64256796,-0.13196315,0.48714635,-9.39099312,10291009.21005011,0.00000000,0.00000000,0.00000000,7348085.28795838,0.00000000,0.00000000,-0.00000000,9135388.76920938,-0.43275168,2.04769399,1.98365725,0.04999908,0.00335032,0.02338365,0.99846987
2.59280334,-0.99811453,0.05797620,0.00965899,0.01768714,0.03476276,0.07613323,-0.02544415,0.07613323,0.16857708,-0.06080809,-0.02544415,-0.06080807,0.47829845,0.08885935,0.02555021,-0.35367749,0.69494526,0.00000000,0.00000000,0.00000000,0.61448867,0.00000000,0.00000000,-0.00000000,0.64256796,-0.03413386,0.51204067,-9.01618958,10291009.21005011,0.00000000,0.00000000,0.00000000,7348085.28795838,0.00000000,0.00000000,-0.00000000,9135388.76920938,-0.43306547,2.04752211,1.98517116,0.04928158,0.00327870,0.02358649,0.99850100
2.59774337,-0.99816215,0.05710856,0.00963041,0.01783731,0.03468906,0.07598339,-0.02541610,0.07598339,0.16834825,-0.06083443,-0.02541610,-0.06083445,0.47818635,0.08638930,-0.00603173,-0.34835223,0.69494526,0.00000000,0.00000000,0.00000000,0.61448867,0.00000000,0.00000000,-0.00000000,0.64256796,0.04937894,0.53439784,-8.83238125,10291009.21005011,0.00000000,0.00000000,0.00000000,7348085.28795838,0.00000000,0.00000000,-0.00000000,9135388.76920938,-0.43357209,2.04726350,1.98758258,0.04814989,0.00317639,0.02391088,0.99854883
2.60268314,-0.99820757,0.05625177,0.00964124,0.01801230,0.03463518,0.07585149,-0.02540922,0.07585150,0.16811342,-0.06089914,-0.02540922,-0.06089915,0.47807165,0.09917270,-0.02063020,-0.34078113,0.69494526,0.00000000,0.00000000,0.00000000,0.61448867,0.00000000,0.00000000,-0.00000000,0.64256796,0.09476742,0.53486967,-8.74884129,10291009.21005011,0.00000000,0.00000000,0.00000000,7348085.28795838,0.00000000,0.00000000,-0.00000000,9135388.76920938,-0.43406558,2.04703419,1.98989343,0.04708259,0.00309325,0.02422185,0.99859249
2.60762318,-0.99824941,0.05542086,0.00970363,0.01823593,0.03461752,0.07575063,-0.02542946,0.07575062,0.16785810,-0.06099521,-0.02542946,-0.06099521,0.47795300,0.11678250,-0.04359324,-0.33267201,0.69494526,0.00000000,0.00000000,0.00000000,0.61448867,0.00000000,0.00000000,-0.00000000,0.64256796,0.06136230,0.52735871,-8.80374050,10291009.21005011,0.00000000,0.00000000,0.00000000,7348085.28795838,0.00000000,0.00000000,-0.00000000,9135388.76920938,-0.43458894,2.04681538,1.99230390,0.04599130,0.00302233,0.02454521,0.99863567
2.61256321,-0.99828923,0.05460283,0.00980446,0.01846654,0.03460956,0.07565411,-0.02546938,0.07565411,0.16758145,-0.06111329,-0.02546939,-0.06111331,0.47783460,0.11367199,-0.05888031,-0.32514481,0.69494526,0.00000000,0.00000000,0.00000000,0.61448867,0.00000000,0.00000000,-0.00000000,0.64256796,0.01605324,0.53403944,-9.04722977,10291009.21005011,0.00000000,0.00000000,0.00000000,7348085.28795838,0.00000000,0.00000000,-0.00000000,9135388.76920938,-0.43512407,2.04661740,1.99472648,0.04491921,0.00296483,0.02486914,0.99867662
2.61750324,-0.99832690,0.05381031,0.00991478,0.01869709,0.03460729,0.07556491,-0.02551517,0.07556490,0.16731230,-0.06124266,-0.02551517,-0.06124266,0.47772101,0.11418477,-0.06098389,-0.31486601,0.69494526,0.00000000,0.00000000,0.00000000,0.61448867,0.00000000,0.00000000,-0.00000000,0.64256796,-0.03644053,0.56451327,-9.35276985,10291009.21005011,0.00000000,0.00000000,0.00000000,7348085.28795838,0.00000000,0.00000000,-0.00000000,9135388.76920938,-0.43563341,2.04645290,1.99699352,0.04394001,0.00292099,0.02517139,0.99871274
2.62244327,-0.99836266,0.05304331,0.01002538,0.01891893,0.03460507,0.07547789,-0.02556176,0.07547790,0.16705160,-0.06137011,-0.02556175,-0.06137009,0.47761393,0.11468691,-0.05993107,-0.30565720,0.69494526,0.00000000,0.00000000,0.00000000,0.61448867,0.00000000,0.00000000,-0.00000000,0.64256796,-0.16772789,0.58939099,-9.51979542,10291009.21005011,0.00000000,0.00000000,0.00000000,7348085.28795838,0.00000000,0.00000000,-0.00000000,9135388.76920938,-0.43614631,2.04631058,1.99923891,0.04299466,0.00288466,0.02547002,0.99874642
2.63973325,-0.99846613,0.05069946,0.01027931,0.01973050,0.03466568,0.07526884,-0.02567230,0.07526884,0.16624082,-0.06177526,-0.02567231,-0.06177529,0.47729990,0.10568138,-0.00483535,-0.24547515,0.69494526,0.00000000,0.00000000,0.00000000,0.61448867,0.00000000,0.00000000,-0.00000000,0.64256796,-0.61148584,0.54653543,-10.08062267,10291009.21005011,0.00000000,0.00000000,0.00000000,7348085.28795838,0.00000000,0.00000000,-0.00000000,9135388.76920938,-0.43810619,2.04597382,2.00748673,0.03974916,0.00278668,0.02655509,0.99885288
2.65455335,-0.99854106,0.04905632,0.00987412,0.02029086,0.03465496,0.07511057,-0.02547369,0.07511058,0.16585425,-0.06181044,-0.02547369,-0.06181043,0.47714963,0.09867516,0.08237331,-0.20792766,0.69494526,0.00000000,0.00000000,0.00000000,0.61448867,0.00000000,0.00000000,-0.00000000,0.64256796,-0.40156373,0.36259374,-9.77055645,10291009.21005011,0.00000000,0.00000000,0.00000000,7348085.28795838,0.00000000,0.00000000,-0.00000000,9135388.76920938,-0.43984705,2.04593048,2.01439423,0.03732730,0.00273235,0.02743215,0.99892276
2.65949338,-0.99856383,0.04856343,0.00968442,0.02044632,0.03463969,0.07505668,-0.02538060,0.07505667,0.16576064,-0.06176473,-0.02538060,-0.06176473,0.47711718,0.09447990,0.07075586,-0.19876845,0.69494526,0.00000000,0.00000000,0.00000000,0.61448867,0.00000000,0.00000000,-0.00000000,0.64256796,-0.36577252,0.30807847,-9.21911526,10291009.21005011,0.00000000,0.00000000,0.00000000,7348085.28795838,0.00000000,0.00000000,-0.00000000,9135388.76920938,-0.44009755,2.04594264,2.01535598,0.03701287,0.00272913,0.02755067,0.99893121
2.67431322,-0.99862200,0.04722828,0.00943581,0.02084545,0.03461119,0.07490528,-0.02525649,0.07490528,0.16543658,-0.06175461,-0.02525649,-0.06175463,0.47702964,0.07238295,0.02949406,-0.17079899,0.69494526,0.00000000,0.00000000,0.00000000,0.61448867,0.00000000,0.00000000,-0.00000000,0.64256796,-0.08652174,0.23463514,-8.84689999,10291009.21005011,0.00000000,0.00000000,0.00000000,7348085.28795838,0.00000000,0.00000000,-0.00000000,9135388.76920938,-0.44237287,2.04624610,2.02371324,0.03453301,0.00278890,0.02852689,0.99899245
2.67925325,-0.99863899,0.04684161,0.00939386,0.02092322,0.03458510,0.07484455,-0.02523397,0.07484455,0.16534381,-0.06175653,-0.02523396,-0.06175652,0.47701336,0.06180867,0.01675499,-0.15300132,0.69494526,0.00000000,0.00000000,0.00000000,0.61448867,0.00000000,0.00000000,-0.00000000,0.64256796,-0.03402796,0.27337232,-8.96149540,10291009.21005011,0.00000000,0.00000000,0.00000000,7348085.28795838,0.00000000,0.00000000,-0.00000000,9135388.76920938,-0.44251434,2.04627567,2.02420978,0.03440096,0.00279798,0.02858112,0.99899543
2.68419329,-0.99865347,0.04649870,0.00939704,0.02099574,0.03456768,0.07479454,-0.02523352,0.07479454,0.16525583,-0.06177290,-0.02523352,-0.06177290,0.47700048,0.06401427,-0.00584592,-0.13248245,0.69494526,0.00000000,0.00000000,0.00000000,0.61448867,0.00000000,0.00000000,-0.00000000,0.64256796,-0.09134683,0.35391918,-8.91125107,10291009.21005011,0.00000000,0.00000000,0.00000000,7348085.28795838,0.00000000,0.00000000,-0.00000000,9135388.76920938,-0.44321359,2.04643863,2.02662327,0.03378582,0.00285152,0.02883707,0.99900891
2.68913332,-0.99866503,0.04621293,0.00943975,0.02105704,0.03455715,0.07475259,-0.02525280,0.07475260,0.16516601,-0.06180714,-0.02525280,-0.06180712,0.47699296,0.05502712,-0.02067507,-0.10927368,0.69494526,0.00000000,0.00000000,0.00000000,0.61448867,0.00000000,0.00000000,-0.00000000,0.64256796,-0.20826477,0.48156574,-8.89434338,10291009.21005011,0.00000000,0.00000000,0.00000000,7348085.28795838,0.00000000,0.00000000,-0.00000000,9135388.76920938,-0.44381647,2.04660053,2.02864966,0.03330542,0.00290842,0.02904121,0.99901897
2.70395316,-0.99867404,0.04597823,0.00961493,0.02106412,0.03453817,0.07469817,-0.02533832,0.07469817,0.16505672,-0.06190304,-0.02533832,-0.06190303,0.47706260,0.02325896,-0.01161029,0.03786067,0.69494526,0.00000000,0.00000000,0.00000000,0.61448867,0.00000000,0.00000000,-0.00000000,0.64256796,-0.54464912,0.87419772,-9.49301910,10291009.21005011,0.00000000,0.00000000,0.00000000,7348085.28795838,0.00000000,0.00000000,-0.00000000,9135388.76920938,-0.44646493,2.04751298,2.03696575,0.03178767,0.00319392,0.02973775,0.99904705
2.71877325,-0.99862891,0.04712800,0.00963660,0.02064829,0.03450996,0.07478945,-0.02535804,0.07478944,0.16538767,-0.06181551,-0.02535803,-0.06181550,0.47736189,-0.03858994,0.03603405,0.24292502,0.69494526,0.00000000,0.00000000,0.00000000,0.61448867,0.00000000,0.00000000,-0.00000000,0.64256796,-0.69979727,1.05395269,-9.83894539,10291009.21005011,0.00000000,0.00000000,0.00000000,7348085.28795838,0.00000000,0.00000000,-0.00000000,9135388.76920938,-0.44861694,2.04844491,2.04305742,0.03135480,0.00337769,0.03003758,0.99905116
2.72371329,-0.99859810,0.04787211,0.00956209,0.02046126,0.03452932,0.07488815,-0.02533034,0.07488815,0.16561900,-0.06173224,-0.02533034,-0.06173225,0.47751807,-0.04261071,0.05068042,0.31546629,0.69494526,0.00000000,0.00000000,0.00000000,0.61448867,0.00000000,0.00000000,-0.00000000,0.64256796,-0.64247841,1.02352417,-9.73634243,10291009.21005011,0.00000000,0.00000000,0.00000000,7348085.28795838,0.00000000,0.00000000,-0.00000000,9135388.76920938,-0.44874785,2.04850588,2.04341008,0.03135449,0.00338674,0.03004751,0.99905084
2.73853338,-0.99846274,0.05098040,0.00923871,0.01969233,0.03461744,0.07530215,-0.02520704,0.07530215,0.16657116,-0.06132010,-0.02520705,-0.06132011,0.47814818,-0.10123261,0.03107028,0.46733505,0.69494526,0.00000000,0.00000000,0.00000000,0.61448867,0.00000000,0.00000000,-0.00000000,0.64256796,-0.14148100,0.23406549,-8.65825939,10291009.21005011,0.00000000,0.00000000,0.00000000,7348085.28795838,0.00000000,0.00000000,-0.00000000,9135388.76920938,-0.45150566,2.04987523,2.05040157,0.03205625,0.00351917,0.03004319,0.99902824
2.74594330,-0.99837464,0.05283614,0.00932940,0.01922055,0.03469153,0.07555651,-0.02527117,0.07555650,0.16709426,-0.06119100,-0.02527117,-0.06119101,0.47851167,-0.09210033,-0.01145751,0.51162202,0.69494526,0.00000000,0.00000000,0.00000000,0.61448867,0.00000000,0.00000000,-0.00000000,0.64256796,0.12347979,-0.15217361,-8.10249329,10291009.21005011,0.00000000,0.00000000,0.00000000,7348085.28795838,0.00000000,0.00000000,-0.00000000,9135388.76920938,-0.45189209,2.05007733,2.05131862,0.03225743,0.00352942,0.03001326,0.99902263
2.75088334,-0.99830991,0.05413746,0.00943581,0.01890514,0.03475721,0.07574135,-0.02533910,0.07574134,0.16743657,-0.06113076,-0.02533910,-0.06113077,0.47876600,-0.10685130,-0.03212541,0.52451731,0.69494526,0.00000000,0.00000000,0.00000000,0.61448867,0.00000000,0.00000000,-0.00000000,0.64256796,0.34061313,-0.34559122,-8.21025181,10291009.21005011,0.00000000,0.00000000,0.00000000,7348085.28795838,0.00000000,0.00000000,-0.00000000,9135388.76920938,-0.45273686,2.05052541,2.05327388,0.03277956,0.00354518,0.02992586,0.99900820
2.75582337,-0.99824423,0.05544264,0.00958155,0.01851369,0.03478717,0.07589303,-0.02542470,0.07589304,0.16778848,-0.06106630,-0.02542470,-0.06106631,0.47903484,-0.14217687,-0.06035912,0.52435626,0.69494526,0.00000000,0.00000000,0.00000000,0.61448867,0.00000000,0.00000000,-0.00000000,0.64256796,0.45503902,-0.52098495,-8.40627670,10291009.21005011,0.00000000,0.00000000,0.00000000,7348085.28795838,0.00000000,0.00000000,-0.00000000,9135388.76920938,-0.45357116,2.05097468,2.05514187,0.03339628,0.00355059,0.02981223,0.99899115
2.76076314,-0.99817622,0.05673841,0.00977478,0.01815034,0.03483770,0.07606482,-0.02553516,0.07606481,0.16814781,-0.06103258,-0.02553515,-0.06103258,0.47930181,-0.13667621,-0.09132928,0.52158740,0.69494526,0.00000000,0.00000000,0.00000000,0.61448867,0.00000000,0.00000000,-0.00000000,0.64256796,0.43117824,-0.72886884,-8.34438515,10291009.21005011,0.00000000,0.00000000,0.00000000,7348085.28795838,0.00000000,0.00000000,-0.00000000,9135388.76920938,-0.45453198,2.05149783,2.05722159,0.03421299,0.00354166,0.02965121,0.99896833
2.77558324,-0.99797076,0.06036979,0.01065793,0.01721365,0.03506659,0.07659582,-0.02602216,0.07659582,0.16902091,-0.06115035,-0.02602217,-0.06115036,0.48005503,-0.15277111,-0.11196902,0.45384777,0.69494526,0.00000000,0.00000000,0.00000000,0.61448867,0.00000000,0.00000000,-0.00000000,0.64256796,0.43348491,-1.07727814,-9.23765850,10291009.21005011,0.00000000,0.00000000,0.00000000,7348085.28795838,0.00000000,0.00000000,-0.00000000,9135388.76920938,-0.45730105,2.05301751,2.06283979,0.03704366,0.00340304,0.02903753,0.99888588
2.79040334,-0.99780256,0.06318079,0.01138465,0.01638973,0.03520801,0.07698312,-0.02642814,0.07698313,0.16976580,-0.06126492,-0.02642814,-0.06126492,0.48070686,-0.11426025,-0.10361559,0.31433964,0.69494526,0.00000000,0.00000000,0.00000000,0.61448867,0.00000000,0.00000000,-0.00000000,0.64256796,0.35246408,-1.23326874,-9.20193481,10291009.21005011,0.00000000,0.00000000,0.00000000,7348085.28795838,0.00000000,0.00000000,-0.00000000,9135388.76920938,-0.46018475,2.05457716,2.06822113,0.04035185,0.00307560,0.02824607,0.99878147
2.79534337,-0.99775928,0.06385771,0.01163516,0.01622479,0.03527028,0.07710012,-0.02656493,0.07710011,0.16992881,-0.06133898,-0.02656493,-0.06133896,0.48086907,-0.08703653,-0.10856753,0.25974260,0.69494526,0.00000000,0.00000000,0.00000000,0.61448867,0.00000000,0.00000000,-0.00000000,0.64256796,0.29758424,-1.24816537,-9.13984013,10291009.21005011,0.00000000,0.00000000,0.00000000,7348085.28795838,0.00000000,0.00000000,-0.00000000,9135388.76920938,-0.46088234,2.05494580,2.06946785,0.04115017,0.00297169,0.02804547,0.99875487
2.81016321,-0.99767995,0.06501742,0.01220886,0.01607671,0.03546850,0.07737896,-0.02687646,0.07737896,0.17015132,-0.06161203,-0.02687647,-0.06161204,0.48117233,-0.02423988,-0.06523591,0.08414183,0.69494526,0.00000000,0.00000000,0.00000000,0.61448867,0.00000000,0.00000000,-0.00000000,0.64256796,0.30232993,-1.18128812,-10.02793598,10291009.21005011,0.00000000,0.00000000,0.00000000,7348085.28795838,0.00000000,0.00000000,-0.00000000,9135388.76920938,-0.46379517,2.05643332,2.07450143,0.04425160,0.00247136,0.02726469,0.99864525
2.81510324,-0.99767137,0.06512529,0.01226123,0.01612946,0.03552391,0.07744016,-0.02690744,0.07744016,0.17016380,-0.06167357,-0.02690744,-0.06167357,0.48121947,-0.00679112,-0.03347637,0.03177502,0.69494526,0.00000000,0.00000000,0.00000000,0.61448867,0.00000000,0.00000000,-0.00000000,0.64256796,0.29039952,-1.14561486,-10.14488220,10291009.21005011,0.00000000,0.00000000,0.00000000,7348085.28795838,0.00000000,0.00000000,-0.00000000,9135388.76920938,-0.46482244,2.05693449,2.07622427,0.04520186,0.00228029,0.02703661,0.99860934
2.82004327,-0.99767113,0.06510503,0.01224846,0.01623673,0.03557837,0.07749124,-0.02690345,0.07749124,0.17015038,-0.06170988,-0.02690345,-0.06170988,0.48124156,0.01445947,-0.01692915,-0.02062182,0.69494526,0.00000000,0.00000000,0.00000000,0.61448867,0.00000000,0.00000000,-0.00000000,0.64256796,0.24986261,-1.13411081,-10.03740692,10291009.21005011,0.00000000,0.00000000,0.00000000,7348085.28795838,0.00000000,0.00000000,-0.00000000,9135388.76920938,-0.46578347,2.05739114,2.07781649,0.04600587,0.00209982,0.02685294,0.99857797
2.82498330,-0.99767828,0.06496377,0.01222838,0.01637518,0.03562646,0.07752253,-0.02689267,0.07752253,0.17009227,-0.06174074,-0.02689267,-0.06174072,0.48123848,0.02359844,-0.01576019,-0.06659480,0.69494526,0.00000000,0.00000000,0.00000000,0.61448867,0.00000000,0.00000000,-0.00000000,0.64256796,0.20214103,-1.11074650,-9.79621601,10291009.21005011,0.00000000,0.00000000,0.00000000,7348085.28795838,0.00000000,0.00000000,-0.00000000,9135388.76920938,-0.46675269,2.05783933,2.07940554,0.04672755,0.00191903,0.02669894,0.99854896
2.83980314,-0.99773556,0.06392791,0.01217219,0.01699498,0.03577047,0.07755162,-0.02685167,0.07755162,0.16971431,-0.06189859,-0.02685168,-0.06189858,0.48109396,0.06529038,-0.01895655,-0.18014150,0.69494526,0.00000000,0.00000000,0.00000000,0.61448867,0.00000000,0.00000000,-0.00000000,0.64256796,0.26900423,-0.90241587,-9.48567581,10291009.21005011,0.00000000,0.00000000,0.00000000,7348085.28795838,0.00000000,0.00000000,-0.00000000,9135388.76920938,-0.47025915,2.05935207,2.08504891,0.04850963,0.00131631,0.02643315,0.99847202
2.85462324,-0.99782264,0.06235033,0.01209051,0.01778167,0.03590536,0.07750944,-0.02679114,0.07750944,0.16915102,-0.06209668,-0.02679114,-0.06209667,0.48083849,0.08821996,-0.02185692,-0.21687701,0.69494526,0.00000000,0.00000000,0.00000000,0.61448867,0.00000000,0.00000000,-0.00000000,0.64256796,0.24265146,-0.51128197,-9.54975700,10291009.21005011,0.00000000,0.00000000,0.00000000,7348085.28795838,0.00000000,0.00000000,-0.00000000,9135388.76920938,-0.47332406,2.06053110,2.08989627,0.04890826,0.00091649,0.02656660,0.99844948
2.85956327,-0.99785054,0.06182822,0.01206645,0.01805444,0.03595781,0.07749960,-0.02677339,0.07749960,0.16895587,-0.06216299,-0.02677337,-0.06216297,0.48075399,0.08611059,-0.02924719,-0.20499530,0.69494526,0.00000000,0.00000000,0.00000000,0.61448867,0.00000000,0.00000000,-0.00000000,0.64256796,0.14720824,-0.37624985,-9.41109371,10291009.21005011,0.00000000,0.00000000,0.00000000,7348085.28795838,0.00000000,0.00000000,-0.00000000,9135388.76920938,-0.47399133,2.06077112,2.09094250,0.04886166,0.00084694,0.02662408,0.99845029
2.87685325,-0.99791235,0.06058956,0.01225515,0.01870068,0.03610848,0.07747253,-0.02685285,0.07747253,0.16838619,-0.06242659,-0.02685285,-0.06242660,0.48058468,0.02025964,-0.07100897,-0.07540053,0.69494526,0.00000000,0.00000000,0.00000000,0.61448867,0.00000000,0.00000000,-0.00000000,0.64256796,-0.14148100,0.00733976,-9.37234402,10291009.21005011,0.00000000,0.00000000,0.00000000,7348085.28795838,0.00000000,0.00000000,-0.00000000,9135388.76920938,-0.47744154,2.06193060,2.09627839,0.04810796,0.00054260,0.02698131,0.99847751
2.88179329,-0.99791658,0.06049739,0.01235385,0.01870625,0.03610501,0.07744894,-0.02689971,0.07744895,0.16831466,-0.06247156,-0.02689971,-0.06247156,0.48060099,-0.00846237,-0.08079726,-0.02192957,0.69494526,0.00000000,0.00000000,0.00000000,0.61448867,0.00000000,0.00000000,-0.00000000,0.64256796,-0.22258124,0.09717481,-9.36026764,10291009.21005011,0.00000000,0.00000000,0.00000000,7348085.28795838,0.00000000,0.00000000,-0.00000000,9135388.76920938,-0.47834251,2.06221368,2.09764622,0.04782289,0.00047018,0.02707369,0.99848874
2.88673332,-0.99791366,0.06054367,0.01250014,0.01861522,0.03607841,0.07741874,-0.02697070,0.07741873,0.16829113,-0.06250685,-0.02697069,-0.06250683,0.48064947,-0.03292644,-0.09527716,0.03641442,0.69494526,0.00000000,0.00000000,0.00000000,0.61448867,0.00000000,0.00000000,-0.00000000,0.64256796,-0.30609405,0.17744090,-9.28135109,10291009.21005011,0.00000000,0.00000000,0.00000000,7348085.28795838,0.00000000,0.00000000,-0.00000000,9135388.76920938,-0.47942024,2.06254355,2.09926422,0.04747236,0.00038344,0.02717438,0.99850277
2.89167335,-0.99790251,0.06073473,0.01270763,0.01844918,0.03604367,0.07739617,-0.02707363,0.07739615,0.16831492,-0.06255335,-0.02707363,-0.06255336,0.48072729,-0.04735441,-0.10439517,0.09425656,0.69494526,0.00000000,0.00000000,0.00000000,0.61448867,0.00000000,0.00000000,-0.00000000,0.64256796,-0.34663096,0.23190355,-9.23829556,10291009.21005011,0.00000000,0.00000000,0.00000000,7348085.28795838,0.00000000,0.00000000,-0.00000000,9135388.76920938,-0.48057155,2.06288683,2.10096777,0.04711342,0.00028827,0.02726429,0.99851735
2.90649319,-0.99781805,0.06216556,0.01351732,0.01765889,0.03595946,0.07743146,-0.02749136,0.07743145,0.16863929,-0.06272725,-0.02749137,-0.06272728,0.48112953,-0.09659015,-0.10498284,0.25756247,0.69494526,0.00000000,0.00000000,0.00000000,0.61448867,0.00000000,0.00000000,-0.00000000,0.64256796,-0.36577252,0.26989308,-9.45074177,10291009.21005011,0.00000000,0.00000000,0.00000000,7348085.28795838,0.00000000,0.00000000,-0.00000000,9135388.76920938,-0.48461400,2.06403805,2.10670909,0.04630562,-0.00009499,0.02736403,0.99855245
2.92131329,-0.99766529,0.06465441,0.01442910,0.01660156,0.03594542,0.07763670,-0.02798728,0.07763670,0.16928745,-0.06289052,-0.02798728,-0.06289053,0.48175361,-0.13091635,-0.09908779,0.38304054,0.69494526,0.00000000,0.00000000,0.00000000,0.61448867,0.00000000,0.00000000,-0.00000000,0.64256796,-0.37295723,0.01445550,-9.54170990,10291009.21005011,0.00000000,0.00000000,0.00000000,7348085.28795838,0.00000000,0.00000000,-0.00000000,9135388.76920938,-0.48831340,2.06504872,2.11160010,0.04652274,-0.00054416,0.02708737,0.99854975
2.92625332,-0.99760252,0.06565829,0.01471087,0.01617743,0.03593477,0.07771903,-0.02814755,0.07771901,0.16957455,-0.06291823,-0.02814756,-0.06291825,0.48200895,-0.14588326,-0.09294567,0.41277989,0.69494526,0.00000000,0.00000000,0.00000000,0.61448867,0.00000000,0.00000000,-0.00000000,0.64256796,-0.35625467,-0.09276532,-9.49407196,10291009.21005011,0.00000000,0.00000000,0.00000000,7348085.28795838,0.00000000,0.00000000,-0.00000000,9135388.76920938,-0.48877744,2.06517386,2.11218901,0.04662139,-0.00060869,0.02702742,0.99854674
2.93119335,-0.99753493,0.06671419,0.01500571,0.01575038,0.03593585,0.07781795,-0.02831664,0.07781796,0.16988222,-0.06294511,-0.02831664,-0.06294511,0.48227772,-0.14747892,-0.09980724,0.43007856,0.69494526,0.00000000,0.00000000,0.00000000,0.61448867,0.00000000,0.00000000,-0.00000000,0.64256796,-0.36343938,-0.19784799,-9.31272030,10291009.21005011,0.00000000,0.00000000,0.00000000,7348085.28795838,0.00000000,0.00000000,-0.00000000,9135388.76920938,-0.48999142,2.06549996,2.11370465,0.04695215,-0.00078703,0.02684584,0.99853602
2.93613338,-0.99746323,0.06780937,0.01532116,0.01530511,0.03593862,0.07792038,-0.02849840,0.07792038,0.17019876,-0.06297815,-0.02849839,-0.06297815,0.48255851,-0.15330284,-0.10881578,0.44681652,0.69494526,0.00000000,0.00000000,0.00000000,0.61448867,0.00000000,0.00000000,-0.00000000,0.64256796,-0.33957857,-0.30022037,-9.17913342,10291009.21005011,0.00000000,0.00000000,0.00000000,7348085.28795838,0.00000000,0.00000000,-0.00000000,9135388.76920938,-0.49123274,2.06583181,2.11521789,0.04739657,-0.00098412,0.02662471,0.99852077
2.94107316,-0.99738872,0.06892304,0.01564978,0.01484748,0.03594185,0.07802426,-0.02868908,0.07802426,0.17052285,-0.06301983,-0.02868907,-0.06301980,0.48284754,-0.15968354,-0.10941017,0.45003326,0.69494526,0.00000000,0.00000000,0.00000000,0.61448867,0.00000000,0.00000000,-0.00000000,0.64256796,-0.28933853,-0.40232894,-9.20790005,10291009.21005011,0.00000000,0.00000000,0.00000000,7348085.28795838,0.00000000,0.00000000,-0.00000000,9135388.76920938,-0.49250458,2.06617020,2.11673168,0.04795477,-0.00120054,0.02636449,0.99850078
2.94848334,-0.99727517,0.07058609,0.01612761,0.01413277,0.03593238,0.07816727,-0.02897076,0.07816726,0.17102699,-0.06307286,-0.02897076,-0.06307287,0.48329289,-0.16871652,-0.10529506,0.44893593,0.69494526,0.00000000,0.00000000,0.00000000,0.61448867,0.00000000,0.00000000,-0.00000000,0.64256796,-0.21537006,-0.53281355,-9.39668465,10291009.21005011,0.00000000,0.00000000,0.00000000,7348085.28795838,0.00000000,0.00000000,-0.00000000,9135388.76920938,-0.49392694,2.06654640,2.11838316,0.04868784,-0.00145748,0.02603862,0.99847351
2.95342337,-0.99719852,0.07167742,0.01638882,0.01374145,0.03596522,0.07830587,-0.02913237,0.07830588,0.17138783,-0.06311192,-0.02913238,-0.06311192,0.48358480,-0.16287324,-0.10207451,0.43976457,0.69494526,0.00000000,0.00000000,0.00000000,0.61448867,0.00000000,0.00000000,-0.00000000,0.64256796,-0.19394827,-0.60179400,-9.44213104,10291009.21005011,0.00000000,0.00000000,0.00000000,7348085.28795838,0.00000000,0.00000000,-0.00000000,9135388.76920938,-0.49521747,2.06688547,2.11984584,0.04943984,-0.00170207,0.02571584,0.99844454
2.95836314,-0.99712193,0.07273455,0.01666427,0.01340997,0.03602586,0.07845834,-0.02930098,0.07845833,0.17169345,-0.06316566,-0.02930098,-0.06316564,0.48386572,-0.15490320,-0.09725115,0.42302205,0.69494526,0.00000000,0.00000000,0.00000000,0.61448867,0.00000000,0.00000000,-0.00000000,0.64256796,-0.17724571,-0.65650994,-9.43741894,10291009.21005011,0.00000000,0.00000000,0.00000000,7348085.28795838,0.00000000,0.00000000,-0.00000000,9135388.76920938,-0.49642086,2.06719951,2.12118082,0.05020572,-0.00193828,0.02539532,0.99841410
2.97812327,-0.99684131,0.07646933,0.01760819,0.01223508,0.03624739,0.07900544,-0.02989326,0.07900544,0.17280230,-0.06335419,-0.02989325,-0.06335419,0.48491075,-0.13355679,-0.07963430,0.33978904,0.69494526,0.00000000,0.00000000,0.00000000,0.61448867,0.00000000,0.00000000,-0.00000000,0.64256796,-0.05086289,-0.77688920,-9.52118301,10291009.21005011,0.00000000,0.00000000,0.00000000,7348085.28795838,0.00000000,0.00000000,-0.00000000,9135388.76920938,-0.50183961,2.06858032,2.12688829,0.05414110,-0.00302910,0.02380624,0.99824487
2.98800334,-0.99672323,0.07798392,0.01799658,0.01172384,0.03632543,0.07921712,-0.03014119,0.07921712,0.17327191,-0.06342810,-0.03014119,-0.06342810,0.48536926,-0.12975400,-0.07115476,0.28569055,0.69494526,0.00000000,0.00000000,0.00000000,0.61448867,0.00000000,0.00000000,-0.00000000,0.64256796,0.02323796,-0.79760307,-9.55704880,10291009.21005011,0.00000000,0.00000000,0.00000000,7348085.28795838,0.00000000,0.00000000,-0.00000000,9135388.76920938,-0.50611276,2.06961377,2.13110360,0.05734497,-0.00381872,0.02251795,0.99809314
3.00282318,-0.99658000,0.07978348,0.01843343,0.01109699,0.03641008,0.07946623,-0.03042834,0.07946624,0.17386532,-0.06351006,-0.03042833,-0.06351003,0.48595380,-0.09886444,-0.05712519,0.21113876,0.69494526,0.00000000,0.00000000,0.00000000,0.61448867,0.00000000,0.00000000,-0.00000000,0.64256796,0.24739715,-0.71886235,-9.59054947,10291009.21005011,0.00000000,0.00000000,0.00000000,7348085.28795838,0.00000000,0.00000000,-0.00000000,9135388.76920938,-0.50995809,2.07048356,2.13473903,0.05997221,-0.00447421,0.02144627,0.99795961
3.00776321,-0.99654210,0.08025090,0.01855910,0.01091694,0.03642542,0.07952374,-0.03050945,0.07952373,0.17402017,-0.06352616,-0.03050945,-0.06352616,0.48611826,-0.09557266,-0.06549395,0.18405155,0.69494526,0.00000000,0.00000000,0.00000000,0.61448867,0.00000000,0.00000000,-0.00000000,0.64256796,0.30484837,-0.72305053,-9.46164513,10291009.21005011,0.00000000,0.00000000,0.00000000,7348085.28795838,0.00000000,0.00000000,-0.00000000,9135388.76920938,-0.51029581,2.07055674,2.13505251,0.06018578,-0.00453058,0.02135851,0.99794838
3.01270324,-0.99650955,0.08064646,0.01869191,0.01074773,0.03643349,0.07956719,-0.03059203,0.07956719,0.17415178,-0.06355137,-0.03059204,-0.06355139,0.48626489,-0.09121728,-0.06964103,0.15374639,0.69494526,0.00000000,0.00000000,0.00000000,0.61448867,0.00000000,0.00000000,-0.00000000,0.64256796,0.37643078,-0.70797849,-9.31603718,10291009.21005011,0.00000000,0.00000000,0.00000000,7348085.28795838,0.00000000,0.00000000,-0.00000000,9135388.76920938,-0.51175265,2.07086590,2.13639544,0.06107193,-0.00477381,0.02099383,0.99790114
3.01764327,-0.99648285,0.08095931,0.01883486,0.01061942,0.03644858,0.07961066,-0.03067666,0.07961064,0.17425663,-0.06359207,-0.03067666,-0.06359208,0.48638593,-0.07142489,-0.08204248,0.12239005,0.69494526,0.00000000,0.00000000,0.00000000,0.61448867,0.00000000,0.00000000,-0.00000000,0.64256796,0.43359077,-0.66440827,-9.13936424,10291009.21005011,0.00000000,0.00000000,0.00000000,7348085.28795838,0.00000000,0.00000000,-0.00000000,9135388.76920938,-0.51327165,2.07117646,2.13778083,0.06193183,-0.00502986,0.02063963,0.99785428
3.02258330,-0.99646020,0.08120979,0.01899439,0.01054196,0.03648031,0.07966207,-0.03076736,0.07966206,0.17432407,-0.06365717,-0.03076736,-0.06365714,0.48648341,-0.04955946,-0.09179762,0.09753160,0.69494526,0.00000000,0.00000000,0.00000000,0.61448867,0.00000000,0.00000000,-0.00000000,0.64256796,0.45983770,-0.62117386,-9.03667736,10291009.21005011,0.00000000,0.00000000,0.00000000,7348085.28795838,0.00000000,0.00000000,-0.00000000,9135388.76920938,-0.51467046,2.07145122,2.13904455,0.06266274,-0.00526998,0.02033890,0.99781358
3.03740314,-0.99641997,0.08156654,0.01960929,0.01046962,0.03659885,0.07978770,-0.03109330,0.07978769,0.17431763,-0.06396797,-0.03109329,-0.06396795,0.48665051,-0.01893008,-0.12247204,0.01960561,0.69494526,0.00000000,0.00000000,0.00000000,0.61448867,0.00000000,0.00000000,-0.00000000,0.64256796,0.49565536,-0.54681581,-9.30402660,10291009.21005011,0.00000000,0.00000000,0.00000000,7348085.28795838,0.00000000,0.00000000,-0.00000000,9135388.76920938,-0.51999426,2.07239300,2.14376039,0.06489982,-0.00622976,0.01942402,0.99768327
3.05469338,-0.99640793,0.08145832,0.02054375,0.01066702,0.03680956,0.07993305,-0.03156277,0.07993306,0.17401113,-0.06453352,-0.03156277,-0.06453352,0.48666176,-0.00803337,-0.14757934,-0.02696779,0.69494526,0.00000000,0.00000000,0.00000000,0.61448867,0.00000000,0.00000000,-0.00000000,0.64256796,0.30235639,-0.41758287,-9.68817520,10291009.21005011,0.00000000,0.00000000,0.00000000,7348085.28795838,0.00000000,0.00000000,-0.00000000,9135388.76920938,-0.52468548,2.07307867,2.14781260,0.06613167,-0.00712999,0.01892115,0.99760601
3.05963316,-0.99640739,0.08138740,0.02081898,0.01072275,0.03686271,0.07996397,-0.03170015,0.07996396,0.17391342,-0.06470671,-0.03170015,-0.06470669,0.48665452,-0.00010028,-0.14486908,-0.02476955,0.69494526,0.00000000,0.00000000,0.00000000,0.61448867,0.00000000,0.00000000,-0.00000000,0.64256796,0.21879065,-0.37311080,-9.76926136,10291009.21005011,0.00000000,0.00000000,0.00000000,7348085.28795838,0.00000000,0.00000000,-0.00000000,9135388.76920938,-0.52505270,2.07312646,2.14812644,0.06619725,-0.00720142,0.01889345,0.99760167
3.06457319,-0.99640602,0.08132595,0.02109239,0.01078096,0.03691866,0.07999682,-0.03183669,0.07999682,0.17381179,-0.06487692,-0.03183668,-0.06487689,0.48664916,-0.00276646,-0.14331982,-0.02260832,0.69494526,0.00000000,0.00000000,0.00000000,0.61448867,0.00000000,0.00000000,-0.00000000,0.64256796,0.10903095,-0.35517192,-9.79305172,10291009.21005011,0.00000000,0.00000000,0.00000000,7348085.28795838,0.00000000,0.00000000,-0.00000000,9135388.76920938,-0.52647936,2.07330389,2.14934164,0.06640882,-0.00747922,0.01880116,0.99758731
3.06951322,-0.99640453,0.08126666,0.02137311,0.01081270,0.03696190,0.08001659,-0.03197713,0.08001660,0.17371107,-0.06504243,-0.03197714,-0.06504244,0.48664791,-0.01603768,-0.14293223,-0.02048854,0.69494526,0.00000000,0.00000000,0.00000000,0.61448867,0.00000000,0.00000000,-0.00000000,0.64256796,0.03994052,-0.34397602,-9.82641411,10291009.21005011,0.00000000,0.00000000,0.00000000,7348085.28795838,0.00000000,0.00000000,-0.00000000,9135388.76920938,-0.52800603,2.07347961,2.15063498,0.06656468,-0.00777751,0.01872574,0.99757606
3.07445325,-0.99640346,0.08120584,0.02164985,0.01081959,0.03699123,0.08002423,-0.03211550,0.08002423,0.17362034,-0.06519662,-0.03211549,-0.06519664,0.48665009,-0.02556473,-0.14460705,-0.02160178,0.69494526,0.00000000,0.00000000,0.00000000,0.61448867,0.00000000,0.00000000,-0.00000000,0.64256796,0.00653540,-0.30852836,-9.81919670,10291009.21005011,0.00000000,0.00000000,0.00000000,7348085.28795838,0.00000000,0.00000000,-0.00000000,9135388.76920938,-0.52957109,2.07364507,2.15195344,0.06665771,-0.00808533,0.01866791,0.99756849
3.07939329,-0.99640030,0.08117089,0.02193261,0.01080029,0.03701292,0.08002762,-0.03225807,0.08002763,0.17354455,-0.06534652,-0.03225806,-0.06534651,0.48666218,-0.03299286,-0.15047528,-0.00865316,0.69494526,0.00000000,0.00000000,0.00000000,0.61448867,0.00000000,0.00000000,-0.00000000,0.64256796,-0.05544974,-0.27577317,-9.73794460,10291009.21005011,0.00000000,0.00000000,0.00000000,7348085.28795838,0.00000000,0.00000000,-0.00000000,9135388.76920938,-0.53107680,2.07379072,2.15321497,0.06669201,-0.00838430,0.01862550,0.99756452
3.08433332,-0.99639559,0.08115133,0.02222216,0.01079201,0.03704480,0.08004344,-0.03240504,0.08004343,0.17347606,-0.06551035,-0.03240503,-0.06551034,0.48667471,-0.02720656,-0.14568535,-0.00375415,0.69494526,0.00000000,0.00000000,0.00000000,0.61448867,0.00000000,0.00000000,-0.00000000,0.64256796,-0.10794351,-0.25961891,-9.68775940,10291009.21005011,0.00000000,0.00000000,0.00000000,7348085.28795838,0.00000000,0.00000000,-0.00000000,9135388.76920938,-0.53268749,2.07393248,2.15455698,0.06667899,-0.00870810,0.01858847,0.99756331
3.08927335,-0.99639016,0.08114334,0.02250601,0.01076297,0.03706701,0.08004945,-0.03254957,0.08004945,0.17340782,-0.06566248,-0.03254958,-0.06566251,0.48669348,-0.03941545,-0.14318216,0.00001308,0.69494526,0.00000000,0.00000000,0.00000000,0.61448867,0.00000000,0.00000000,-0.00000000,0.64256796,-0.11040901,-0.23099764,-9.77368927,10291009.21005011,0.00000000,0.00000000,0.00000000,7348085.28795838,0.00000000,0.00000000,-0.00000000,9135388.76920938,-0.53410057,2.07404592,2.15572754,0.06663720,-0.00899600,0.01855718,0.99756413
3.09421338,-0.99638432,0.08114757,0.02277945,0.01070049,0.03707270,0.08004266,-0.03268989,0.08004266,0.17335679,-0.06580297,-0.03268990,-0.06580298,0.48672098,-0.04903011,-0.13434382,0.00650287,0.69494526,0.00000000,0.00000000,0.00000000,0.61448867,0.00000000,0.00000000,-0.00000000,0.64256796,-0.11995333,-0.21200533,-9.86677742,10291009.21005011,0.00000000,0.00000000,0.00000000,7348085.28795838,0.00000000,0.00000000,-0.00000000,9135388.76920938,-0.53565080,2.07415993,2.15700370,0.06657289,-0.00931634,0.01851753,0.99756622
3.10903322,-0.99636352,0.08122777,0.02349751,0.01047673,0.03707161,0.08002067,-0.03306240,0.08002066,0.17327176,-0.06616026,-0.03306240,-0.06616027,0.48683270,-0.06140517,-0.10975879,0.01626965,0.69494526,0.00000000,0.00000000,0.00000000,0.61448867,0.00000000,0.00000000,-0.00000000,0.64256796,-0.04357229,-0.18972579,-10.01482677,10291009.21005011,0.00000000,0.00000000,0.00000000,7348085.28795838,0.00000000,0.00000000,-0.00000000,9135388.76920938,-0.54077320,2.07447580,2.16115302,0.06638700,-0.01040861,0.01827117,0.99757235
3.12385332,-0.99634564,0.08129159,0.02412240,0.01025536,0.03705729,0.07999422,-0.03338601,0.07999423,0.17322660,-0.06644770,-0.03338601,-0.06644770,0.48694684,-0.03531020,-0.12421054,0.00494099,0.69494526,0.00000000,0.00000000,0.00000000,0.61448867,0.00000000,0.00000000,-0.00000000,0.64256796,0.10675076,-0.19530533,-9.58278656,10291009.21005011,0.00000000,0.00000000,0.00000000,7348085.28795838,0.00000000,0.00000000,-0.00000000,9135388.76920938,-0.54532887,2.07470575,2.16474228,0.06639079,-0.01138861,0.01784321,0.99756914
3.12879335,-0.99634165,0.08127234,0.02437099,0.01020584,0.03706240,0.07998692,-0.03351212,0.07998691,0.17317720,-0.06656770,-0.03351212,-0.06656770,0.48696807,-0.03785704,-0.13422178,-0.00807783,0.69494526,0.00000000,0.00000000,0.00000000,0.61448867,0.00000000,0.00000000,-0.00000000,0.64256796,0.19262314,-0.21587920,-9.62822342,10291009.21005011,0.00000000,0.00000000,0.00000000,7348085.28795838,0.00000000,0.00000000,-0.00000000,9135388.76920938,-0.54670959,2.07477044,2.16580911,0.06643089,-0.01167942,0.01767345,0.99756613
3.13373338,-0.99634105,0.08121622,0.02461072,0.01013551,0.03704788,0.07995873,-0.03363320,0.07995872,0.17312676,-0.06668535,-0.03363319,-0.06668533,0.48698456,-0.04314197,-0.12848230,-0.02539630,0.69494526,0.00000000,0.00000000,0.00000000,0.61448867,0.00000000,0.00000000,-0.00000000,0.64256796,0.30238289,-0.21711202,-9.75005531,10291009.21005011,0.00000000,0.00000000,0.00000000,7348085.28795838,0.00000000,0.00000000,-0.00000000,9135388.76920938,-0.54838525,2.07484733,2.16708999,0.06649797,-0.01202712,0.01744934,0.99756147
3.13867316,-0.99634260,0.08112644,0.02485622,0.01010754,0.03704999,0.07994506,-0.03375500,0.07994507,0.17306757,-0.06681362,-0.03375499,-0.06681359,0.48698591,-0.02080756,-0.13508440,-0.03617444,0.69494526,0.00000000,0.00000000,0.00000000,0.61448867,0.00000000,0.00000000,-0.00000000,0.64256796,0.34533229,-0.22143368,-9.72621059,10291009.21005011,0.00000000,0.00000000,0.00000000,7348085.28795838,0.00000000,0.00000000,-0.00000000,9135388.76920938,-0.55008551,2.07492443,2.16837375,0.06658088,-0.01237359,0.01720782,0.99755590
3.14361319,-0.99634594,0.08100191,0.02512485,0.01011049,0.03706414,0.07993584,-0.03388653,0.07993584,0.17297674,-0.06695930,-0.03388653,-0.06695931,0.48697254,-0.01223028,-0.14392925,-0.05132846,0.69494526,0.00000000,0.00000000,0.00000000,0.61448867,0.00000000,0.00000000,-0.00000000,0.64256796,0.31672582,-0.20503101,-9.63783741,10291009.21005011,0.00000000,0.00000000,0.00000000,7348085.28795838,0.00000000,0.00000000,-0.00000000,9135388.76920938,-0.55181724,2.07500294,2.16966437,0.06667448,-0.01271946,0.01695382,0.99754965
3.14855322,-0.99635142,0.08084797,0.02539679,0.01012227,0.03707723,0.07992170,-0.03401882,0.07992168,0.17287148,-0.06711370,-0.03401881,-0.06711369,0.48695020,-0.00954187,-0.14494797,-0.06214740,0.69494526,0.00000000,0.00000000,0.00000000,0.61448867,0.00000000,0.00000000,-0.00000000,0.64256796,0.25230166,-0.15558992,-9.56612492,10291009.21005011,0.00000000,0.00000000,0.00000000,7348085.28795838,0.00000000,0.00000000,-0.00000000,9135388.76920938,-0.55349278,2.07507969,2.17089639,0.06676371,-0.01304683,0.01671225,0.99754353
3.15349325,-0.99635768,0.08067398,0.02568587,0.01016341,0.03710411,0.07991828,-0.03415823,0.07991829,0.17275357,-0.06728132,-0.03415823,-0.06728132,0.48691710,0.00327320,-0.15322481,-0.07077824,0.69494526,0.00000000,0.00000000,0.00000000,0.61448867,0.00000000,0.00000000,-0.00000000,0.64256796,0.17340219,-0.10628482,-9.50635529,10291009.21005011,0.00000000,0.00000000,0.00000000,7348085.28795838,0.00000000,0.00000000,-0.00000000,9135388.76920938,-0.55517656,2.07515828,2.17211725,0.06683608,-0.01336790,0.01649319,0.99753808
3.16090318,-0.99636811,0.08039199,0.02612875,0.01024809,0.03715322,0.07991676,-0.03437122,0.07991677,0.17255620,-0.06754795,-0.03437122,-0.06754794,0.48685763,0.01124353,-0.15734975,-0.07565271,0.69494526,0.00000000,0.00000000,0.00000000,0.61448867,0.00000000,0.00000000,-0.00000000,0.64256796,0.03996699,-0.04565512,-9.49664783,10291009.21005011,0.00000000,0.00000000,0.00000000,7348085.28795838,0.00000000,0.00000000,-0.00000000,9135388.76920938,-0.55692516,2.07524211,2.17336619,0.06687653,-0.01369227,0.01631091,0.99753396
3.17572327,-0.99638414,0.07986851,0.02705200,0.01038674,0.03724828,0.07990900,-0.03481832,0.07990901,0.17215818,-0.06809841,-0.03481831,-0.06809839,0.48674733,0.00479749,-0.15111362,-0.05779112,0.69494526,0.00000000,0.00000000,0.00000000,0.61448867,0.00000000,0.00000000,-0.00000000,0.64256796,-0.14620019,0.08126894,-9.81156826,10291009.21005011,0.00000000,0.00000000,0.00000000,7348085.28795838,0.00000000,0.00000000,-0.00000000,9135388.76920938,-0.56289653,2.07555231,2.17748211,0.06662243,-0.01475176,0.01620177,0.99753764
3.19054337,-0.99637187,0.07969154,0.02801002,0.01038387,0.03734580,0.07993581,-0.03529739,0.07993582,0.17188106,-0.06861683,-0.03529739,-0.06861682,0.48673241,-0.00588241,-0.16966292,0.00707319,0.69494526,0.00000000,0.00000000,0.00000000,0.61448867,0.00000000,0.00000000,-0.00000000,0.64256796,-0.46113631,0.18296541,-9.45792198,10291009.21005011,0.00000000,0.00000000,0.00000000,7348085.28795838,0.00000000,0.00000000,-0.00000000,9135388.76920938,-0.56824753,2.07586797,2.18098271,0.06599223,-0.01578036,0.01670136,0.99755555
3.19548314,-0.99635637,0.07976611,0.02837078,0.01031621,0.03737694,0.07995487,-0.03548466,0.07995487,0.17183007,-0.06880076,-0.03548467,-0.06880077,0.48676330,-0.01711820,-0.16558586,0.03899365,0.69494526,0.00000000,0.00000000,0.00000000,0.61448867,0.00000000,0.00000000,-0.00000000,0.64256796,-0.51137638,0.14665197,-9.57970047,10291009.21005011,0.00000000,0.00000000,0.00000000,7348085.28795838,0.00000000,0.00000000,-0.00000000,9135388.76920938,-0.56974886,2.07596313,2.18193608,0.06578428,-0.01609167,0.01690254,0.99756092
3.20042318,-0.99633515,0.07991588,0.02873738,0.01019269,0.03739544,0.07996984,-0.03567884,0.07996984,0.17181116,-0.06897393,-0.03567885,-0.06897394,0.48681957,-0.03579503,-0.16000825,0.06980358,0.69494526,0.00000000,0.00000000,0.00000000,0.61448867,0.00000000,0.00000000,-0.00000000,0.64256796,-0.57580054,0.09824301,-9.77548313,10291009.21005011,0.00000000,0.00000000,0.00000000,7348085.28795838,0.00000000,0.00000000,-0.00000000,9135388.76920938,-0.57175278,2.07609414,2.18319163,0.06551332,-0.01651043,0.01717536,0.99756725
3.20536321,-0.99630737,0.08014844,0.02911319,0.01001274,0.03740335,0.07998405,-0.03588191,0.07998405,0.17182972,-0.06913729,-0.03588192,-0.06913731,0.48690300,-0.05556594,-0.15286746,0.10493506,0.69494526,0.00000000,0.00000000,0.00000000,0.61448867,0.00000000,0.00000000,-0.00000000,0.64256796,-0.67829609,0.04942307,-9.90915775,10291009.21005011,0.00000000,0.00000000,0.00000000,7348085.28795838,0.00000000,0.00000000,-0.00000000,9135388.76920938,-0.57363763,2.07622122,2.18435653,0.06528245,-0.01689926,0.01741317,0.99757175
3.21030324,-0.99627233,0.08046999,0.02950543,0.00977173,0.03740083,0.07999791,-0.03609807,0.07999791,0.17188671,-0.06929409,-0.03609806,-0.06929407,0.48701538,-0.07691865,-0.14468945,0.13899125,0.69494526,0.00000000,0.00000000,0.00000000,0.61448867,0.00000000,0.00000000,-0.00000000,0.64256796,-0.76419502,0.00556152,-9.94973373,10291009.21005011,0.00000000,0.00000000,0.00000000,7348085.28795838,0.00000000,0.00000000,-0.00000000,9135388.76920938,-0.57560935,2.07635777,2.18556004,0.06508154,-0.01729392,0.01762179,0.99757445
3.21524327,-0.99623162,0.08086032,0.02990598,0.00947756,0.03738708,0.08000954,-0.03632275,0.08000953,0.17197933,-0.06944636,-0.03632275,-0.06944634,0.48715217,-0.10038526,-0.13495267,0.16763354,0.69494526,0.00000000,0.00000000,0.00000000,0.61448867,0.00000000,0.00000000,-0.00000000,0.64256796,-0.78566974,-0.03046302,-9.94736767,10291009.21005011,0.00000000,0.00000000,0.00000000,7348085.28795838,0.00000000,0.00000000,-0.00000000,9135388.76920938,-0.57755985,2.07649605,2.18673651,0.06493055,-0.01767257,0.01778117,0.99757483
3.22018330,-0.99618471,0.08133264,0.03028968,0.00914306,0.03736830,0.08002689,-0.03654423,0.08002690,0.17211423,-0.06958739,-0.03654424,-0.06958742,0.48731681,-0.11594235,-0.12040362,0.20009844,0.69494526,0.00000000,0.00000000,0.00000000,0.61448867,0.00000000,0.00000000,-0.00000000,0.64256796,-0.78805578,-0.05435396,-9.88770103,10291009.21005011,0.00000000,0.00000000,0.00000000,7348085.28795838,0.00000000,0.00000000,-0.00000000,9135388.76920938,-0.57959736,2.07664340,2.18795144,0.06482910,-0.01805745,0.01789365,0.99757252
