time_s,orientation_x,orientation_y,orientation_z,orientation_w,orientation_covariance_0,orientation_covariance_1,orientation_covariance_2,orientation_covariance_3,orientation_covariance_4,orientation_covariance_5,orientation_covariance_6,orientation_covariance_7,orientation_covariance_8,angular_velocity_x,angular_velocity_y,angular_velocity_z,angular_velocity_covariance_0,angular_velocity_covariance_1,angular_velocity_covariance_2,angular_velocity_covariance_3,angular_velocity_covariance_4,angular_velocity_covariance_5,angular_velocity_covariance_6,angular_velocity_covariance_7,angular_velocity_covariance_8,linear_acceleration_x,linear_acceleration_y,linear_acceleration_z,linear_acceleration_covariance_0,linear_acceleration_covariance_1,linear_acceleration_covariance_2,linear_acceleration_covariance_3,linear_acceleration_covariance_4,linear_acceleration_covariance_5,linear_acceleration_covariance_6,linear_acceleration_covariance_7,linear_acceleration_covariance_8,x,y,z,w,rot_x,rot_y,rot_z
1.44835357,0.97604197,-0.02565162,-0.21582173,0.01024809,0.04262437,0.07478910,-0.08777661,0.07478910,0.14809172,-0.11464683,-0.08777662,-0.11464682,0.32845225,-0.02151816,0.00952786,-0.00092814,0.69494526,0.00000000,0.00000000,0.00000000,0.61448867,0.00000000,0.00000000,-0.00000000,0.64256796,-4.03138447,0.25933069,-8.91307068,10291009.21005011,0.00000000,0.00000000,0.00000000,7348085.28795838,0.00000000,0.00000000,-0.00000000,9135388.76920938,0.56836879,0.57218689,1.56191133,0.95620023,0.01955219,0.27805581,-0.08935210
1.45329360,0.97606087,-0.02562982,-0.21573947,0.01023500,0.04260928,0.07477081,-0.08775974,0.07477082,0.14807283,-0.11462545,-0.08775974,-0.11462543,0.32850887,-0.02151225,0.00847559,0.00123845,0.69494526,0.00000000,0.00000000,0.00000000,0.61448867,0.00000000,0.00000000,-0.00000000,0.64256796,-4.01712084,0.28096530,-8.88441467,10291009.21005011,0.00000000,0.00000000,0.00000000,7348085.28795838,0.00000000,0.00000000,-0.00000000,9135388.76920938,0.56837386,0.57221467,1.56192476,0.95620067,0.01949190,0.27805623,-0.08935926
1.45823364,0.97607946,-0.02560365,-0.21565951,0.01021313,0.04259535,0.07475301,-0.08774235,0.07475301,0.14805356,-0.11460414,-0.08774235,-0.11460415,0.32856286,-0.01778272,0.00588490,0.00015994,0.69494526,0.00000000,0.00000000,0.00000000,0.61448867,0.00000000,0.00000000,-0.00000000,0.64256796,-4.00519085,0.28347731,-8.85099411,10291009.21005011,0.00000000,0.00000000,0.00000000,7348085.28795838,0.00000000,0.00000000,-0.00000000,9135388.76920938,0.56838029,0.57224375,1.56193984,0.95620297,0.01943764,0.27805007,-0.08936563
1.46317367,0.97609782,-0.02558589,-0.21558005,0.01018099,0.04258575,0.07473980,-0.08772495,0.07473981,0.14803643,-0.11458800,-0.08772495,-0.11458802,0.32861426,-0.01248437,0.00646540,-0.00036499,0.69494526,0.00000000,0.00000000,0.00000000,0.61448867,0.00000000,0.00000000,-0.00000000,0.64256796,-3.98371625,0.29324940,-8.84860992,10291009.21005011,0.00000000,0.00000000,0.00000000,7348085.28795838,0.00000000,0.00000000,-0.00000000,9135388.76920938,0.56838789,0.57227316,1.56195605,0.95620692,0.01939056,0.27803804,-0.08937103
1.47058359,0.97612542,-0.02555938,-0.21545939,0.01015754,0.04256601,0.07471487,-0.08770076,0.07471486,0.14800717,-0.11455859,-0.08770076,-0.11455859,0.32869785,-0.01672696,0.00431582,0.00394506,0.69494526,0.00000000,0.00000000,0.00000000,0.61448867,0.00000000,0.00000000,-0.00000000,0.64256796,-3.99561977,0.30744106,-8.87007427,10291009.21005011,0.00000000,0.00000000,0.00000000,7348085.28795838,0.00000000,0.00000000,-0.00000000,9135388.76920938,0.56839639,0.57230224,1.56197288,0.95621214,0.01935032,0.27802146,-0.08937543
1.47552362,0.97614264,-0.02555413,-0.21538237,0.01014139,0.04255675,0.07470346,-0.08768669,0.07470347,0.14799273,-0.11454424,-0.08768668,-0.11454427,0.32875257,-0.01991525,0.00428147,0.00772664,0.69494526,0.00000000,0.00000000,0.00000000,0.61448867,0.00000000,0.00000000,-0.00000000,0.64256796,-4.02189302,0.31671390,-8.85572720,10291009.21005011,0.00000000,0.00000000,0.00000000,7348085.28795838,0.00000000,0.00000000,-0.00000000,9135388.76920938,0.56840620,0.57233265,1.56199114,0.95621863,0.01931320,0.27800050,-0.08937922
1.48046365,0.97615993,-0.02554830,-0.21530557,0.01012963,0.04254643,0.07469206,-0.08767275,0.07469205,0.14798118,-0.11453041,-0.08767275,-0.11453043,0.32880753,-0.01887476,0.00692108,0.00881860,0.69494526,0.00000000,0.00000000,0.00000000,0.61448867,0.00000000,0.00000000,-0.00000000,0.64256796,-4.04575396,0.30930331,-8.84378147,10291009.21005011,0.00000000,0.00000000,0.00000000,7348085.28795838,0.00000000,0.00000000,-0.00000000,9135388.76920938,0.56841634,0.57236198,1.56200900,0.95622534,0.01927952,0.27797874,-0.08938245
1.48540368,0.97617751,-0.02554684,-0.21522637,0.01012227,0.04253585,0.07468003,-0.08765915,0.07468004,0.14796745,-0.11451435,-0.08765915,-0.11451436,0.32886526,-0.01992913,0.00533229,0.00826600,0.69494526,0.00000000,0.00000000,0.00000000,0.61448867,0.00000000,0.00000000,-0.00000000,0.64256796,-4.06478930,0.28523198,-8.84378624,10291009.21005011,0.00000000,0.00000000,0.00000000,7348085.28795838,0.00000000,0.00000000,-0.00000000,9135388.76920938,0.56842769,0.57239344,1.56202800,0.95623240,0.01924281,0.27795590,-0.08938583
1.50022352,0.97622776,-0.02553896,-0.21499999,0.01010607,0.04250419,0.07464575,-0.08762139,0.07464575,0.14793358,-0.11446970,-0.08762138,-0.11446968,0.32903554,-0.02362472,0.00266436,0.00987474,0.69494526,0.00000000,0.00000000,0.00000000,0.61448867,0.00000000,0.00000000,-0.00000000,0.64256796,-4.07674646,0.24215041,-8.79846001,10291009.21005011,0.00000000,0.00000000,0.00000000,7348085.28795838,0.00000000,0.00000000,-0.00000000,9135388.76920938,0.56847286,0.57251456,1.56209385,0.95625087,0.01906217,0.27789912,-0.08940347
1.51504362,0.97627020,-0.02550890,-0.21481240,0.01007210,0.04247806,0.07461565,-0.08759065,0.07461565,0.14790367,-0.11443515,-0.08759064,-0.11443514,0.32918944,-0.02308089,0.00162006,0.00445501,0.69494526,0.00000000,0.00000000,0.00000000,0.61448867,0.00000000,0.00000000,-0.00000000,0.64256796,-4.04326200,0.26636019,-8.81516266,10291009.21005011,0.00000000,0.00000000,0.00000000,7348085.28795838,0.00000000,0.00000000,-0.00000000,9135388.76920938,0.56851689,0.57262541,1.56214246,0.95625663,0.01886400,0.27788494,-0.08942796
1.51998365,0.97628427,-0.02549166,-0.21475106,0.01006025,0.04246790,0.07460361,-0.08758000,0.07460359,0.14789159,-0.11442313,-0.08757999,-0.11442315,0.32923966,-0.02468039,0.00318162,0.00336988,0.69494526,0.00000000,0.00000000,0.00000000,0.61448867,0.00000000,0.00000000,-0.00000000,0.64256796,-4.03369093,0.29032397,-8.82708168,10291009.21005011,0.00000000,0.00000000,0.00000000,7348085.28795838,0.00000000,0.00000000,-0.00000000,9135388.76920938,0.56852325,0.57264060,1.56214841,0.95625699,0.01883729,0.27788435,-0.08943166
1.52492368,0.97629780,-0.02548026,-0.21469142,0.01004840,0.04245952,0.07459387,-0.08757036,0.07459387,0.14788281,-0.11441204,-0.08757037,-0.11441203,0.32929001,-0.02202855,0.00162974,0.00607934,0.69494526,0.00000000,0.00000000,0.00000000,0.61448867,0.00000000,0.00000000,-0.00000000,0.64256796,-4.04800749,0.30687958,-8.82466984,10291009.21005011,0.00000000,0.00000000,0.00000000,7348085.28795838,0.00000000,0.00000000,-0.00000000,9135388.76920938,0.56853835,0.57267588,1.56216177,0.95625770,0.01877739,0.27788324,-0.08944011
1.52986346,0.97631109,-0.02546651,-0.21463360,0.01002761,0.04245279,0.07458487,-0.08756037,0.07458487,0.14787181,-0.11440246,-0.08756037,-0.11440245,0.32933784,-0.02042337,0.00059525,0.00608788,0.69494526,0.00000000,0.00000000,0.00000000,0.61448867,0.00000000,0.00000000,-0.00000000,0.64256796,-4.07194757,0.32095554,-8.82226086,10291009.21005011,0.00000000,0.00000000,0.00000000,7348085.28795838,0.00000000,0.00000000,-0.00000000,9135388.76920938,0.56855502,0.57271356,1.56217547,0.95625853,0.01871792,0.27788169,-0.08944853
1.53480349,0.97632450,-0.02545305,-0.21457520,0.01000530,0.04244633,0.07457606,-0.08755005,0.07457606,0.14786031,-0.11439343,-0.08755004,-0.11439343,0.32938518,-0.02042186,0.00112199,0.00446563,0.69494526,0.00000000,0.00000000,0.00000000,0.61448867,0.00000000,0.00000000,-0.00000000,0.64256796,-4.07194757,0.32334208,-8.84135818,10291009.21005011,0.00000000,0.00000000,0.00000000,7348085.28795838,0.00000000,0.00000000,-0.00000000,9135388.76920938,0.56857416,0.57275533,1.56219019,0.95625982,0.01865904,0.27787858,-0.08945661
1.53974352,0.97633898,-0.02543314,-0.21451287,0.00998592,0.04243687,0.07456394,-0.08753822,0.07456393,0.14784613,-0.11438193,-0.08753822,-0.11438195,0.32943390,-0.02203205,0.00373495,0.00283748,0.69494526,0.00000000,0.00000000,0.00000000,0.61448867,0.00000000,0.00000000,-0.00000000,0.64256796,-4.03130484,0.31421494,-8.87242317,10291009.21005011,0.00000000,0.00000000,0.00000000,7348085.28795838,0.00000000,0.00000000,-0.00000000,9135388.76920938,0.56859323,0.57279579,1.56220399,0.95626142,0.01860869,0.27787444,-0.08946288
1.54468355,0.97635490,-0.02540441,-0.21444412,0.00997248,0.04242277,0.07454688,-0.08752422,0.07454688,0.14782949,-0.11436453,-0.08752422,-0.11436451,0.32948557,-0.02415069,0.00529285,-0.00095286,0.69494526,0.00000000,0.00000000,0.00000000,0.61448867,0.00000000,0.00000000,-0.00000000,0.64256796,-4.00267220,0.29780978,-8.86768150,10291009.21005011,0.00000000,0.00000000,0.00000000,7348085.28795838,0.00000000,0.00000000,-0.00000000,9135388.76920938,0.56861407,0.57283938,1.56221820,0.95626320,0.01855976,0.27787003,-0.08946774
1.54962359,0.97637010,-0.02537624,-0.21437976,0.00994105,0.04241339,0.07453330,-0.08751010,0.07453329,0.14781315,-0.11434892,-0.08751010,-0.11434892,0.32953302,-0.01775082,0.00115324,-0.00364695,0.69494526,0.00000000,0.00000000,0.00000000,0.61448867,0.00000000,0.00000000,-0.00000000,0.64256796,-4.00511122,0.28824320,-8.82233143,10291009.21005011,0.00000000,0.00000000,0.00000000,7348085.28795838,0.00000000,0.00000000,-0.00000000,9135388.76920938,0.56863380,0.57288050,1.56223087,0.95626465,0.01851687,0.27786704,-0.08947038
1.57185360,0.97643942,-0.02508656,-0.21410760,0.00972893,0.04234879,0.07443123,-0.08743032,0.07443123,0.14768621,-0.11425392,-0.08743031,-0.11425391,0.32971988,-0.01080311,0.00123469,-0.02419491,0.69494526,0.00000000,0.00000000,0.00000000,0.61448867,0.00000000,0.00000000,-0.00000000,0.64256796,-4.03371763,0.29509956,-8.87721729,10291009.21005011,0.00000000,0.00000000,0.00000000,7348085.28795838,0.00000000,0.00000000,-0.00000000,9135388.76920938,0.56872081,0.57306733,1.56227797,0.95626534,0.01833500,0.27788096,-0.08945721
1.58667344,0.97649252,-0.02486492,-0.21389781,0.00958388,0.04229407,0.07434655,-0.08736632,0.07434656,0.14758095,-0.11417422,-0.08736631,-0.11417419,0.32985100,-0.00973544,-0.00085933,-0.02040442,0.69494526,0.00000000,0.00000000,0.00000000,0.61448867,0.00000000,0.00000000,-0.00000000,0.64256796,-4.11251116,0.41837916,-8.77200413,10291009.21005011,0.00000000,0.00000000,0.00000000,7348085.28795838,0.00000000,0.00000000,-0.00000000,9135388.76920938,0.56884363,0.57334154,1.56231971,0.95625906,0.01809389,0.27794637,-0.08937017
1.59161347,0.97651064,-0.02483374,-0.21381688,0.00962112,0.04226632,0.07431524,-0.08735276,0.07431523,0.14755225,-0.11414233,-0.08735276,-0.11414233,0.32991718,-0.01242553,0.00068554,-0.01012535,0.69494526,0.00000000,0.00000000,0.00000000,0.61448867,0.00000000,0.00000000,-0.00000000,0.64256796,-4.13637161,0.44199419,-8.81971645,10291009.21005011,0.00000000,0.00000000,0.00000000,7348085.28795838,0.00000000,0.00000000,-0.00000000,9135388.76920938,0.56884405,0.57334249,1.56231980,0.95625905,0.01809311,0.27794662,-0.08936975
1.60643357,0.97652483,-0.02487810,-0.21372874,0.01001869,0.04218608,0.07426751,-0.08738733,0.07426752,0.14760728,-0.11408606,-0.08738734,-0.11408608,0.33013203,-0.01780336,0.00535465,0.00827645,0.69494526,0.00000000,0.00000000,0.00000000,0.61448867,0.00000000,0.00000000,-0.00000000,0.64256796,-4.11495018,0.44461137,-8.87703419,10291009.21005011,0.00000000,0.00000000,0.00000000,7348085.28795838,0.00000000,0.00000000,-0.00000000,9135388.76920938,0.56887954,0.57342221,1.56232683,0.95625792,0.01802950,0.27796676,-0.08933195
1.61137360,0.97652495,-0.02492298,-0.21371555,0.01017220,0.04216561,0.07426336,-0.08740749,0.07426337,0.14764444,-0.11408098,-0.08740748,-0.11408096,0.33020274,-0.02047165,0.00374517,0.01583719,0.69494526,0.00000000,0.00000000,0.00000000,0.61448867,0.00000000,0.00000000,-0.00000000,0.64256796,-4.10058069,0.43759727,-8.82451820,10291009.21005011,0.00000000,0.00000000,0.00000000,7348085.28795838,0.00000000,0.00000000,-0.00000000,9135388.76920938,0.56890026,0.57346871,1.56233009,0.95625759,0.01799434,0.27797742,-0.08930951
1.61631364,0.97652328,-0.02497584,-0.21370962,0.01032920,0.04214786,0.07426335,-0.08743063,0.07426332,0.14768676,-0.11408103,-0.08743063,-0.11408104,0.33027183,-0.02259955,0.00319552,0.01961821,0.69494526,0.00000000,0.00000000,0.00000000,0.61448867,0.00000000,0.00000000,-0.00000000,0.64256796,-4.07194757,0.43789825,-8.80066013,10291009.21005011,0.00000000,0.00000000,0.00000000,7348085.28795838,0.00000000,0.00000000,-0.00000000,9135388.76920938,0.56892280,0.57351929,1.56233304,0.95625749,0.01795812,0.27798756,-0.08928624
1.63607351,0.97650695,-0.02518024,-0.21372992,0.01093739,0.04208849,0.07427562,-0.08753281,0.07427563,0.14787140,-0.11410008,-0.08753280,-0.11410007,0.33052911,-0.01403116,-0.00354555,0.00501512,0.69494526,0.00000000,0.00000000,0.00000000,0.61448867,0.00000000,0.00000000,-0.00000000,0.64256796,-3.96937346,0.25521207,-8.79851341,10291009.21005011,0.00000000,0.00000000,0.00000000,7348085.28795838,0.00000000,0.00000000,-0.00000000,9135388.76920938,0.56902151,0.57374355,1.56233759,0.95625771,0.01780275,0.27802074,-0.08921171
1.65089360,0.97652560,-0.02513107,-0.21363561,0.01122516,0.04200816,0.07422009,-0.08754578,0.07422009,0.14791863,-0.11404969,-0.08754578,-0.11404967,0.33071227,-0.00225158,-0.00761621,-0.02472345,0.69494526,0.00000000,0.00000000,0.00000000,0.61448867,0.00000000,0.00000000,-0.00000000,0.64256796,-3.97897053,0.23363729,-8.78182125,10291009.21005011,0.00000000,0.00000000,0.00000000,7348085.28795838,0.00000000,0.00000000,-0.00000000,9135388.76920938,0.56908991,0.57390635,1.56232885,0.95625349,0.01765620,0.27805337,-0.08918431
1.65583364,0.97653812,-0.02506993,-0.21358387,0.01125697,0.04197966,0.07419021,-0.08753554,0.07419021,0.14790719,-0.11401979,-0.08753554,-0.11401978,0.33076623,0.00096229,-0.01020970,-0.03067415,0.69494526,0.00000000,0.00000000,0.00000000,0.61448867,0.00000000,0.00000000,-0.00000000,0.64256796,-3.99805903,0.24775611,-8.77463245,10291009.21005011,0.00000000,0.00000000,0.00000000,7348085.28795838,0.00000000,0.00000000,-0.00000000,9135388.76920938,0.56910926,0.57395289,1.56232448,0.95625195,0.01761251,0.27806398,-0.08917639
1.67065347,0.97658628,-0.02482983,-0.21338907,0.01130716,0.04188202,0.07407698,-0.08748509,0.07407698,0.14783232,-0.11390769,-0.08748509,-0.11390768,0.33092889,0.00410335,-0.00123393,-0.03822386,0.69494526,0.00000000,0.00000000,0.00000000,0.61448867,0.00000000,0.00000000,-0.00000000,0.64256796,-4.10537910,0.38027138,-8.83173656,10291009.21005011,0.00000000,0.00000000,0.00000000,7348085.28795838,0.00000000,0.00000000,-0.00000000,9135388.76920938,0.56917619,0.57411077,1.56230425,0.95624848,0.01748411,0.27809843,-0.08913142
1.67559351,0.97659576,-0.02475982,-0.21335062,0.01136762,0.04184827,0.07403831,-0.08748068,0.07403831,0.14780937,-0.11386676,-0.08748067,-0.11386675,0.33098786,-0.00065975,-0.00496681,-0.03283466,0.69494526,0.00000000,0.00000000,0.00000000,0.61448867,0.00000000,0.00000000,-0.00000000,0.64256796,-4.13878441,0.43242517,-8.80540180,10291009.21005011,0.00000000,0.00000000,0.00000000,7348085.28795838,0.00000000,0.00000000,-0.00000000,9135388.76920938,0.56919671,0.57415743,1.56229686,0.95624854,0.01745696,0.27810693,-0.08910962
1.68053354,0.97659689,-0.02471253,-0.21334650,0.01144861,0.04182239,0.07401431,-0.08748888,0.07401431,0.14781287,-0.11384520,-0.08748888,-0.11384520,0.33103915,-0.00123500,-0.00076884,-0.02633134,0.69494526,0.00000000,0.00000000,0.00000000,0.61448867,0.00000000,0.00000000,-0.00000000,0.64256796,-4.13639832,0.47063571,-8.80536747,10291009.21005011,0.00000000,0.00000000,0.00000000,7348085.28795838,0.00000000,0.00000000,-0.00000000,9135388.76920938,0.56921863,0.57420602,1.56228856,0.95624941,0.01743652,0.27811433,-0.08908112
1.68547357,0.97659463,-0.02467632,-0.21335600,0.01154194,0.04179940,0.07399568,-0.08750281,0.07399570,0.14782492,-0.11383168,-0.08750281,-0.11383168,0.33108854,-0.00495077,-0.00291357,-0.02093743,0.69494526,0.00000000,0.00000000,0.00000000,0.61448867,0.00000000,0.00000000,-0.00000000,0.64256796,-4.11251116,0.49474996,-8.83161926,10291009.21005011,0.00000000,0.00000000,0.00000000,7348085.28795838,0.00000000,0.00000000,-0.00000000,9135388.76920938,0.56924460,0.57426193,1.56227812,0.95625145,0.01742281,0.27812101,-0.08904104
1.70276355,0.97657764,-0.02469896,-0.21341015,0.01192546,0.04174855,0.07397957,-0.08757565,0.07397956,0.14792852,-0.11383480,-0.08757567,-0.11383481,0.33126720,-0.00874146,-0.00296597,0.00448350,0.69494526,0.00000000,0.00000000,0.00000000,0.61448867,0.00000000,0.00000000,-0.00000000,0.64256796,-4.04564810,0.45964861,-8.85556412,10291009.21005011,0.00000000,0.00000000,0.00000000,7348085.28795838,0.00000000,0.00000000,-0.00000000,9135388.76920938,0.56931385,0.57440344,1.56224519,0.95625982,0.01741886,0.27813296,-0.08891454
1.71758365,0.97656226,-0.02481182,-0.21344548,0.01231156,0.04171498,0.07398709,-0.08764851,0.07398709,0.14804843,-0.11385396,-0.08764850,-0.11385394,0.33143789,-0.01035249,-0.00298635,0.01259908,0.69494526,0.00000000,0.00000000,0.00000000,0.61448867,0.00000000,0.00000000,-0.00000000,0.64256796,-4.00749731,0.40516090,-8.81744289,10291009.21005011,0.00000000,0.00000000,0.00000000,7348085.28795838,0.00000000,0.00000000,-0.00000000,9135388.76920938,0.56945178,0.57464717,1.56214708,0.95627399,0.01741230,0.27816001,-0.08867854
1.72252368,0.97655648,-0.02485353,-0.21345994,0.01243201,0.04170706,0.07399282,-0.08767331,0.07399282,0.14809054,-0.11386160,-0.08767332,-0.11386161,0.33149289,-0.00660353,-0.00767933,0.00935054,0.69494526,0.00000000,0.00000000,0.00000000,0.61448867,0.00000000,0.00000000,-0.00000000,0.64256796,-4.00511122,0.38609323,-8.77926159,10291009.21005011,0.00000000,0.00000000,0.00000000,7348085.28795838,0.00000000,0.00000000,-0.00000000,9135388.76920938,0.56945210,0.57464765,1.56214681,0.95627400,0.01741216,0.27816009,-0.08867813
1.73240349,0.97654474,-0.02491969,-0.21349183,0.01267417,0.04168753,0.07399838,-0.08772231,0.07399838,0.14816647,-0.11387577,-0.08772231,-0.11387576,0.33160121,-0.00816242,-0.00874352,0.00393823,0.69494526,0.00000000,0.00000000,0.00000000,0.61448867,0.00000000,0.00000000,-0.00000000,0.64256796,-4.00996304,0.35263816,-8.80078602,10291009.21005011,0.00000000,0.00000000,0.00000000,7348085.28795838,0.00000000,0.00000000,-0.00000000,9135388.76920938,0.56947291,0.57467856,1.56212821,0.95627475,0.01740187,0.27816613,-0.08865310
1.73734352,0.97653997,-0.02493643,-0.21350467,0.01279120,0.04167406,0.07399617,-0.08774387,0.07399616,0.14820034,-0.11387903,-0.08774386,-0.11387904,0.33165434,-0.00815916,-0.00716331,-0.00147193,0.69494526,0.00000000,0.00000000,0.00000000,0.61448867,0.00000000,0.00000000,-0.00000000,0.64256796,-3.99323344,0.33849177,-8.80558205,10291009.21005011,0.00000000,0.00000000,0.00000000,7348085.28795838,0.00000000,0.00000000,-0.00000000,9135388.76920938,0.56947529,0.57468198,1.56212603,0.95627481,0.01740055,0.27816686,-0.08865045
1.74228355,0.97653776,-0.02494509,-0.21350732,0.01289677,0.04165894,0.07399126,-0.08776077,0.07399126,0.14823107,-0.11387891,-0.08776078,-0.11387895,0.33170774,-0.00446236,-0.00396891,-0.00361831,0.69494526,0.00000000,0.00000000,0.00000000,0.61448867,0.00000000,0.00000000,-0.00000000,0.64256796,-3.99084759,0.32181075,-8.78172493,10291009.21005011,0.00000000,0.00000000,0.00000000,7348085.28795838,0.00000000,0.00000000,-0.00000000,9135388.76920938,0.56950197,0.57471888,1.56210104,0.95627509,0.01738468,0.27817549,-0.08862345
1.74722359,0.97653663,-0.02494509,-0.21350677,0.01299347,0.04164285,0.07398314,-0.08777533,0.07398314,0.14825481,-0.11387414,-0.08777533,-0.11387414,0.33176069,-0.00073078,-0.00550586,-0.00956934,0.69494526,0.00000000,0.00000000,0.00000000,0.61448867,0.00000000,0.00000000,-0.00000000,0.64256796,-3.97886443,0.31715816,-8.76501846,10291009.21005011,0.00000000,0.00000000,0.00000000,7348085.28795838,0.00000000,0.00000000,-0.00000000,9135388.76920938,0.56953087,0.57475572,1.56207297,0.95627469,0.01736720,0.27818576,-0.08859899
1.75216362,0.97653663,-0.02493314,-0.21350272,0.01308375,0.04162450,0.07397113,-0.08778726,0.07397113,0.14827319,-0.11386613,-0.08778726,-0.11386613,0.33181298,-0.00123665,-0.00708626,-0.01444549,0.69494526,0.00000000,0.00000000,0.00000000,0.61448867,0.00000000,0.00000000,-0.00000000,0.64256796,-3.95977616,0.32929173,-8.77695656,10291009.21005011,0.00000000,0.00000000,0.00000000,7348085.28795838,0.00000000,0.00000000,-0.00000000,9135388.76920938,0.56957126,0.57480237,1.56203225,0.95627308,0.01734577,0.27820184,-0.08857003
1.76945360,0.97654665,-0.02482533,-0.21345428,0.01332637,0.04155216,0.07391064,-0.08780713,0.07391063,0.14830624,-0.11381846,-0.08780713,-0.11381850,0.33198911,0.00518526,-0.01385349,-0.02202357,0.69494526,0.00000000,0.00000000,0.00000000,0.61448867,0.00000000,0.00000000,-0.00000000,0.64256796,-3.92395830,0.38694361,-8.77692032,10291009.21005011,0.00000000,0.00000000,0.00000000,7348085.28795838,0.00000000,0.00000000,-0.00000000,9135388.76920938,0.56966266,0.57489054,1.56193464,0.95626588,0.01732483,0.27824686,-0.08851048
1.78427370,0.97656077,-0.02471223,-0.21339549,0.01344548,0.04149926,0.07385837,-0.08781113,0.07385838,0.14830636,-0.11377544,-0.08781114,-0.11377544,0.33212802,0.00519991,-0.01595665,-0.02257004,0.69494526,0.00000000,0.00000000,0.00000000,0.61448867,0.00000000,0.00000000,-0.00000000,0.64256796,-3.99076843,0.43158644,-8.85085011,10291009.21005011,0.00000000,0.00000000,0.00000000,7348085.28795838,0.00000000,0.00000000,-0.00000000,9135388.76920938,0.56978387,0.57497909,1.56179275,0.95624932,0.01734229,0.27832987,-0.08842492
1.78921347,0.97656178,-0.02469866,-0.21338941,0.01348974,0.04148925,0.07385044,-0.08781925,0.07385044,0.14831540,-0.11376882,-0.08781924,-0.11376883,0.33217294,0.00627935,-0.02226021,-0.01391940,0.69494526,0.00000000,0.00000000,0.00000000,0.61448867,0.00000000,0.00000000,-0.00000000,0.64256796,-4.01468182,0.45043319,-8.82217216,10291009.21005011,0.00000000,0.00000000,0.00000000,7348085.28795838,0.00000000,0.00000000,-0.00000000,9135388.76920938,0.56979057,0.57498322,1.56178444,0.95624816,0.01734390,0.27833536,-0.08841981
1.80897360,0.97655082,-0.02479290,-0.21340820,0.01381284,0.04146573,0.07385793,-0.08788950,0.07385792,0.14841697,-0.11379084,-0.08788950,-0.11379085,0.33237033,-0.00655666,-0.01872601,0.01473025,0.69494526,0.00000000,0.00000000,0.00000000,0.61448867,0.00000000,0.00000000,-0.00000000,0.64256796,-4.06709623,0.49044612,-8.81970692,10291009.21005011,0.00000000,0.00000000,0.00000000,7348085.28795838,0.00000000,0.00000000,-0.00000000,9135388.76920938,0.56995590,0.57506336,1.56156772,0.95621133,0.01738573,0.27849688,-0.08830126
1.81391364,0.97654575,-0.02485952,-0.21341668,0.01392030,0.04146602,0.07387132,-0.08791453,0.07387133,0.14845922,-0.11380590,-0.08791454,-0.11380591,0.33242553,-0.00710412,-0.01926111,0.02176289,0.69494526,0.00000000,0.00000000,0.00000000,0.61448867,0.00000000,0.00000000,-0.00000000,0.64256796,-4.08379841,0.48549736,-8.79343796,10291009.21005011,0.00000000,0.00000000,0.00000000,7348085.28795838,0.00000000,0.00000000,-0.00000000,9135388.76920938,0.56998473,0.57507337,1.56152828,0.95620338,0.01739263,0.27852881,-0.08828533
1.81885367,0.97653705,-0.02494330,-0.21343881,0.01403862,0.04147104,0.07389191,-0.08794597,0.07389192,0.14851171,-0.11382755,-0.08794596,-0.11382755,0.33247956,-0.00656622,-0.02293990,0.02879507,0.69494526,0.00000000,0.00000000,0.00000000,0.61448867,0.00000000,0.00000000,-0.00000000,0.64256796,-4.10055447,0.47100714,-8.74569511,10291009.21005011,0.00000000,0.00000000,0.00000000,7348085.28795838,0.00000000,0.00000000,-0.00000000,9135388.76920938,0.57002758,0.57508635,1.56146914,0.95619091,0.01740328,0.27857710,-0.08826591
1.83367351,0.97650069,-0.02520922,-0.21354769,0.01443117,0.04149108,0.07396394,-0.08805643,0.07396394,0.14868829,-0.11391309,-0.08805645,-0.11391310,0.33263484,-0.00868631,-0.02243520,0.02770803,0.69494526,0.00000000,0.00000000,0.00000000,0.61448867,0.00000000,0.00000000,-0.00000000,0.64256796,-4.03135824,0.35001853,-8.80554295,10291009.21005011,0.00000000,0.00000000,0.00000000,7348085.28795838,0.00000000,0.00000000,-0.00000000,9135388.76920938,0.57018908,0.57511778,1.56124259,0.95613904,0.01745207,0.27875850,-0.08824542
1.84849360,0.97647756,-0.02536802,-0.21361311,0.01474779,0.04149148,0.07400421,-0.08813746,0.07400422,0.14882534,-0.11396741,-0.08813746,-0.11396740,0.33278258,0.00252615,-0.02335931,0.00392895,0.69494526,0.00000000,0.00000000,0.00000000,0.61448867,0.00000000,0.00000000,-0.00000000,0.64256796,-4.00755024,0.26197052,-8.74118328,10291009.21005011,0.00000000,0.00000000,0.00000000,7348085.28795838,0.00000000,0.00000000,-0.00000000,9135388.76920938,0.57034812,0.57512904,1.56101038,0.95608450,0.01749515,0.27892953,-0.08828734
1.85343364,0.97647542,-0.02538270,-0.21361677,0.01480930,0.04148709,0.07400815,-0.08815186,0.07400813,0.14885424,-0.11397681,-0.08815184,-0.11397683,0.33282601,0.00573812,-0.02384731,-0.00580479,0.69494526,0.00000000,0.00000000,0.00000000,0.61448867,0.00000000,0.00000000,-0.00000000,0.64256796,-3.99800587,0.25729766,-8.74358177,10291009.21005011,0.00000000,0.00000000,0.00000000,7348085.28795838,0.00000000,0.00000000,-0.00000000,9135388.76920938,0.57036473,0.57512939,1.56098536,0.95607879,0.01749837,0.27894696,-0.08829350
1.86825347,0.97649980,-0.02523758,-0.21353361,0.01465047,0.04147441,0.07398472,-0.08812470,0.07398472,0.14882690,-0.11396175,-0.08812469,-0.11396177,0.33291255,0.01799623,-0.02055105,-0.03552786,0.69494526,0.00000000,0.00000000,0.00000000,0.61448867,0.00000000,0.00000000,-0.00000000,0.64256796,-4.02186680,0.29761881,-8.83664227,10291009.21005011,0.00000000,0.00000000,0.00000000,7348085.28795838,0.00000000,0.00000000,-0.00000000,9135388.76920938,0.57070209,0.57511329,1.56044029,0.95597303,0.01752576,0.27929233,-0.08834144
1.87566365,0.97651309,-0.02511179,-0.21349895,0.01448373,0.04147318,0.07396569,-0.08810221,0.07396571,0.14877575,-0.11395153,-0.08810221,-0.11395153,0.33293589,0.01959557,-0.02105971,-0.03660484,0.69494526,0.00000000,0.00000000,0.00000000,0.61448867,0.00000000,0.00000000,-0.00000000,0.64256796,-4.04575396,0.34510213,-8.82942200,10291009.21005011,0.00000000,0.00000000,0.00000000,7348085.28795838,0.00000000,0.00000000,-0.00000000,9135388.76920938,0.57070284,0.57511322,1.56043901,0.95597283,0.01752591,0.27929307,-0.08834125
1.88060368,0.97652292,-0.02502709,-0.21347097,0.01437945,0.04146996,0.07395029,-0.08808629,0.07395028,0.14873942,-0.11394169,-0.08808629,-0.11394169,0.33295442,0.01853595,-0.02159676,-0.03661138,0.69494526,0.00000000,0.00000000,0.00000000,0.61448867,0.00000000,0.00000000,-0.00000000,0.64256796,-4.07197428,0.36630306,-8.80550671,10291009.21005011,0.00000000,0.00000000,0.00000000,7348085.28795838,0.00000000,0.00000000,-0.00000000,9135388.76920938,0.57070326,0.57511317,1.56043830,0.95597272,0.01752599,0.27929347,-0.08834114
1.88554346,0.97653246,-0.02493703,-0.21344468,0.01427753,0.04146535,0.07393340,-0.08807041,0.07393340,0.14870334,-0.11393077,-0.08807042,-0.11393080,0.33297257,0.01747101,-0.02055561,-0.03715292,0.69494526,0.00000000,0.00000000,0.00000000,0.61448867,0.00000000,0.00000000,-0.00000000,0.64256796,-4.11015129,0.37783468,-8.79830933,10291009.21005011,0.00000000,0.00000000,0.00000000,7348085.28795838,0.00000000,0.00000000,-0.00000000,9135388.76920938,0.57070368,0.57511313,1.56043759,0.95597261,0.01752607,0.27929388,-0.08834103
1.90036355,0.97646904,-0.02480702,-0.21375147,0.01425246,0.04150724,0.07396544,-0.08816858,0.07396544,0.14873199,-0.11400748,-0.08816859,-0.11400746,0.33297963,0.00574328,-0.02226654,-0.01284075,0.69494526,0.00000000,0.00000000,0.00000000,0.61448867,0.00000000,0.00000000,-0.00000000,0.64256796,-4.14588976,0.47769028,-8.90801334,10291009.21005011,0.00000000,0.00000000,0.00000000,7348085.28795838,0.00000000,0.00000000,-0.00000000,9135388.76920938,0.57086095,0.57509383,1.56016679,0.95593411,0.01758431,0.27944439,-0.08827004
1.91518365,0.97638977,-0.02487181,-0.21409209,0.01445799,0.04155911,0.07404786,-0.08831056,0.07404785,0.14888728,-0.11413916,-0.08831056,-0.11413917,0.33301998,-0.00278220,-0.02762646,0.01364038,0.69494526,0.00000000,0.00000000,0.00000000,0.61448867,0.00000000,0.00000000,-0.00000000,0.64256796,-4.19838381,0.48191166,-8.83873844,10291009.21005011,0.00000000,0.00000000,0.00000000,7348085.28795838,0.00000000,0.00000000,-0.00000000,9135388.76920938,0.57102628,0.57506689,1.55987530,0.95589600,0.01769736,0.27960193,-0.08816125
1.92012368,0.97635990,-0.02493643,-0.21421525,0.01453816,0.04158657,0.07409124,-0.08836587,0.07409123,0.14895744,-0.11420048,-0.08836586,-0.11420048,0.33303317,-0.00230222,-0.02341849,0.02177025,0.69494526,0.00000000,0.00000000,0.00000000,0.61448867,0.00000000,0.00000000,-0.00000000,0.64256796,-4.17929506,0.46779281,-8.85308933,10291009.21005011,0.00000000,0.00000000,0.00000000,7348085.28795838,0.00000000,0.00000000,-0.00000000,9135388.76920938,0.57103257,0.57506573,1.55986405,0.95589448,0.01770221,0.27960809,-0.08815714
1.93494352,0.97626585,-0.02514974,-0.21460301,0.01476799,0.04167960,0.07423276,-0.08853871,0.07423276,0.14917328,-0.11439280,-0.08853872,-0.11439278,0.33306756,-0.00176532,-0.02446560,0.02556636,0.69494526,0.00000000,0.00000000,0.00000000,0.61448867,0.00000000,0.00000000,-0.00000000,0.64256796,-4.12213516,0.31088969,-8.77688313,10291009.21005011,0.00000000,0.00000000,0.00000000,7348085.28795838,0.00000000,0.00000000,-0.00000000,9135388.76920938,0.57122603,0.57502547,1.55950893,0.95584058,0.01783033,0.27981300,-0.08806561
1.93988355,0.97623253,-0.02521010,-0.21474341,0.01482539,0.04171387,0.07428176,-0.08859709,0.07428177,0.14924353,-0.11445867,-0.08859708,-0.11445865,0.33307203,-0.00013334,-0.02812684,0.01906735,0.69494526,0.00000000,0.00000000,0.00000000,0.61448867,0.00000000,0.00000000,-0.00000000,0.64256796,-4.10304642,0.28722450,-8.76975536,10291009.21005011,0.00000000,0.00000000,0.00000000,7348085.28795838,0.00000000,0.00000000,-0.00000000,9135388.76920938,0.57124052,0.57502208,1.55948159,0.95583588,0.01783752,0.27982961,-0.08806233
1.94482359,0.97619957,-0.02525233,-0.21488546,0.01486454,0.04174751,0.07432821,-0.08865262,0.07432822,0.14930763,-0.11452580,-0.08865262,-0.11452578,0.33307054,-0.00227376,-0.02393996,0.01419453,0.69494526,0.00000000,0.00000000,0.00000000,0.61448867,0.00000000,0.00000000,-0.00000000,0.64256796,-4.10296679,0.27528429,-8.78885937,10291009.21005011,0.00000000,0.00000000,0.00000000,7348085.28795838,0.00000000,0.00000000,-0.00000000,9135388.76920938,0.57129007,0.57501010,1.55938742,0.95581917,0.01785978,0.27988747,-0.08805532
1.94976362,0.97616571,-0.02527828,-0.21503596,0.01486654,0.04178575,0.07437726,-0.08870600,0.07437726,0.14936976,-0.11459521,-0.08870600,-0.11459521,0.33305862,0.00358040,-0.02545513,0.00933632,0.69494526,0.00000000,0.00000000,0.00000000,0.61448867,0.00000000,0.00000000,-0.00000000,0.64256796,-4.12921333,0.25352913,-8.81273937,10291009.21005011,0.00000000,0.00000000,0.00000000,7348085.28795838,0.00000000,0.00000000,-0.00000000,9135388.76920938,0.57133865,0.57499778,1.55929418,0.95580187,0.01787838,0.27994551,-0.08805491
1.95470365,0.97613460,-0.02528447,-0.21517873,0.01483443,0.04182411,0.07442287,-0.08875277,0.07442287,0.14941890,-0.11466406,-0.08875278,-0.11466408,0.33304089,0.00093532,-0.02442826,0.00445855,0.69494526,0.00000000,0.00000000,0.00000000,0.61448867,0.00000000,0.00000000,-0.00000000,0.64256796,-4.13873148,0.23672025,-8.83184814,10291009.21005011,0.00000000,0.00000000,0.00000000,7348085.28795838,0.00000000,0.00000000,-0.00000000,9135388.76920938,0.57140079,0.57498118,1.55917378,0.95577855,0.01789903,0.28002108,-0.08806348
1.96952349,0.97606897,-0.02518438,-0.21550511,0.01458319,0.04191953,0.07451741,-0.08884075,0.07451741,0.14948302,-0.11482419,-0.08884075,-0.11482416,0.33298347,0.00944903,-0.01907093,-0.01606504,0.69494526,0.00000000,0.00000000,0.00000000,0.61448867,0.00000000,0.00000000,-0.00000000,0.64256796,-4.15310097,0.26282704,-8.83898163,10291009.21005011,0.00000000,0.00000000,0.00000000,7348085.28795838,0.00000000,0.00000000,-0.00000000,9135388.76920938,0.57154772,0.57493859,1.55888739,0.95572092,0.01796145,0.28019897,-0.08811047
1.98434359,0.97601199,-0.02500476,-0.21580592,0.01425351,0.04200563,0.07458543,-0.08890829,0.07458545,0.14949325,-0.11495505,-0.08890830,-0.11495506,0.33291865,0.00892661,-0.01854874,-0.01876892,0.69494526,0.00000000,0.00000000,0.00000000,0.61448867,0.00000000,0.00000000,-0.00000000,0.64256796,-4.17460203,0.38909283,-8.91763783,10291009.21005011,0.00000000,0.00000000,0.00000000,7348085.28795838,0.00000000,0.00000000,-0.00000000,9135388.76920938,0.57170456,0.57488865,1.55858420,0.95566134,0.01809147,0.28037540,-0.08816882
1.98928362,0.97599173,-0.02495495,-0.21590908,0.01416647,0.04203314,0.07460859,-0.08893443,0.07460859,0.14950139,-0.11500027,-0.08893445,-0.11500028,0.33290088,0.00359919,-0.01650226,-0.01390790,0.69494526,0.00000000,0.00000000,0.00000000,0.61448867,0.00000000,0.00000000,-0.00000000,0.64256796,-4.17221594,0.42730331,-8.97967815,10291009.21005011,0.00000000,0.00000000,0.00000000,7348085.28795838,0.00000000,0.00000000,-0.00000000,9135388.76920938,0.57173345,0.57487899,1.55852867,0.95565106,0.01812225,0.28040579,-0.08817728
1.99422365,0.97597390,-0.02491251,-0.21600075,0.01406936,0.04206207,0.07463439,-0.08895700,0.07463438,0.14951322,-0.11504657,-0.08895701,-0.11504657,0.33288412,0.00673776,-0.01226511,-0.01064571,0.69494526,0.00000000,0.00000000,0.00000000,0.61448867,0.00000000,0.00000000,-0.00000000,0.64256796,-4.16023254,0.43935677,-9.00115585,10291009.21005011,0.00000000,0.00000000,0.00000000,7348085.28795838,0.00000000,0.00000000,-0.00000000,9135388.76920938,0.57178187,0.57486245,1.55843573,0.95563453,0.01817712,0.28045505,-0.08818841
1.99916368,0.97595727,-0.02488409,-0.21608539,0.01397052,0.04209347,0.07466304,-0.08897911,0.07466304,0.14952515,-0.11509398,-0.08897910,-0.11509398,0.33286995,0.00778182,-0.01225716,-0.00523084,0.69494526,0.00000000,0.00000000,0.00000000,0.61448867,0.00000000,0.00000000,-0.00000000,0.64256796,-4.14352989,0.42759943,-8.99401474,10291009.21005011,0.00000000,0.00000000,0.00000000,7348085.28795838,0.00000000,0.00000000,-0.00000000,9135388.76920938,0.57182815,0.57484620,1.55834700,0.95561965,0.01822994,0.28050018,-0.08819528
2.00657360,0.97594088,-0.02486042,-0.21617132,0.01383224,0.04213536,0.07470279,-0.08900318,0.07470280,0.14953976,-0.11516247,-0.08900317,-0.11516247,0.33286157,-0.00069964,-0.01550338,0.00285739,0.69494526,0.00000000,0.00000000,0.00000000,0.61448867,0.00000000,0.00000000,-0.00000000,0.64256796,-4.12924004,0.40149987,-8.98450184,10291009.21005011,0.00000000,0.00000000,0.00000000,7348085.28795838,0.00000000,0.00000000,-0.00000000,9135388.76920938,0.57187641,0.57482873,1.55825445,0.95560515,0.01828065,0.28054528,-0.08819840
2.01151364,0.97594428,-0.02486042,-0.21616057,0.01375879,0.04215039,0.07471609,-0.08900311,0.07471609,0.14953585,-0.11518777,-0.08900310,-0.11518778,0.33288100,-0.00017427,-0.01655172,0.00664457,0.69494526,0.00000000,0.00000000,0.00000000,0.61448867,0.00000000,0.00000000,-0.00000000,0.64256796,-4.13639832,0.38710514,-8.96779823,10291009.21005011,0.00000000,0.00000000,0.00000000,7348085.28795838,0.00000000,0.00000000,-0.00000000,9135388.76920938,0.57192862,0.57480912,1.55815412,0.95559077,0.01832443,0.28059189,-0.08819692
2.01645367,0.97595143,-0.02487151,-0.21613027,0.01371214,0.04215927,0.07472360,-0.08900094,0.07472361,0.14953012,-0.11519966,-0.08900094,-0.11519967,0.33291459,-0.00284043,-0.01763391,0.01041385,0.69494526,0.00000000,0.00000000,0.00000000,0.61448867,0.00000000,0.00000000,-0.00000000,0.64256796,-4.13867855,0.37991059,-8.95346832,10291009.21005011,0.00000000,0.00000000,0.00000000,7348085.28795838,0.00000000,0.00000000,-0.00000000,9135388.76920938,0.57219345,0.57469371,1.55764982,0.95552558,0.01837869,0.28082118,-0.08816206
2.02139370,0.97595972,-0.02489636,-0.21609177,0.01368059,0.04216706,0.07473224,-0.08899893,0.07473225,0.14953097,-0.11520895,-0.08899893,-0.11520897,0.33295445,0.00086177,-0.01865021,0.01529237,0.69494526,0.00000000,0.00000000,0.00000000,0.61448867,0.00000000,0.00000000,-0.00000000,0.64256796,-4.14583683,0.38460851,-8.95823479,10291009.21005011,0.00000000,0.00000000,0.00000000,7348085.28795838,0.00000000,0.00000000,-0.00000000,9135388.76920938,0.57220575,0.57468753,1.55762729,0.95552182,0.01838350,0.28083335,-0.08816303
2.03621354,0.97598404,-0.02500237,-0.21596798,0.01370562,0.04217367,0.07474896,-0.08900269,0.07474897,0.14954809,-0.11522391,-0.08900270,-0.11522391,0.33310306,-0.00601658,-0.01977253,0.01744398,0.69494526,0.00000000,0.00000000,0.00000000,0.61448867,0.00000000,0.00000000,-0.00000000,0.64256796,-4.16741753,0.39393884,-8.94389725,10291009.21005011,0.00000000,0.00000000,0.00000000,7348085.28795838,0.00000000,0.00000000,-0.00000000,9135388.76920938,0.57220616,0.57468732,1.55762653,0.95552170,0.01838367,0.28083376,-0.08816307
2.05103364,0.97597921,-0.02514234,-0.21596502,0.01384086,0.04219085,0.07479250,-0.08905093,0.07479249,0.14963380,-0.11527537,-0.08905094,-0.11527539,0.33323604,-0.00124983,-0.01709168,0.01204991,0.69494526,0.00000000,0.00000000,0.00000000,0.61448867,0.00000000,0.00000000,-0.00000000,0.64256796,-4.12205505,0.37770689,-8.88902569,10291009.21005011,0.00000000,0.00000000,0.00000000,7348085.28795838,0.00000000,0.00000000,-0.00000000,9135388.76920938,0.57231506,0.57462879,1.55743270,0.95548334,0.01846293,0.28094998,-0.08819194
2.05597367,0.97598219,-0.02516810,-0.21594849,0.01384193,0.04219697,0.07479867,-0.08905819,0.07479868,0.14963266,-0.11528215,-0.08905819,-0.11528216,0.33327829,0.00191774,-0.01495507,0.00989494,0.69494526,0.00000000,0.00000000,0.00000000,0.61448867,0.00000000,0.00000000,-0.00000000,0.64256796,-4.12438869,0.35619769,-8.85800171,10291009.21005011,0.00000000,0.00000000,0.00000000,7348085.28795838,0.00000000,0.00000000,-0.00000000,9135388.76920938,0.57232539,0.57462287,1.55741485,0.95547928,0.01847378,0.28096163,-0.08819652
2.06338359,0.97594351,-0.02518024,-0.21612523,0.01378908,0.04224931,0.07485517,-0.08911885,0.07485517,0.14969013,-0.11534613,-0.08911885,-0.11534614,0.33327244,0.00406021,-0.01598213,0.00448639,0.69494526,0.00000000,0.00000000,0.00000000,0.61448867,0.00000000,0.00000000,-0.00000000,0.64256796,-4.16017962,0.34866169,-8.79352379,10291009.21005011,0.00000000,0.00000000,0.00000000,7348085.28795838,0.00000000,0.00000000,-0.00000000,9135388.76920938,0.57236991,0.57459654,1.55733871,0.95546115,0.01852476,0.28101284,-0.08821909
2.06832362,0.97591490,-0.02518556,-0.21625526,0.01376529,0.04228361,0.07489488,-0.08916249,0.07489489,0.14973226,-0.11540639,-0.08916248,-0.11540638,0.33326066,0.00992104,-0.01697050,0.00017962,0.69494526,0.00000000,0.00000000,0.00000000,0.61448867,0.00000000,0.00000000,-0.00000000,0.64256796,-4.16982985,0.35095760,-8.77442551,10291009.21005011,0.00000000,0.00000000,0.00000000,7348085.28795838,0.00000000,0.00000000,-0.00000000,9135388.76920938,0.57242036,0.57456499,1.55725353,0.95543962,0.01858581,0.28107278,-0.08824849
2.07326365,0.97588700,-0.02518763,-0.21638225,0.01374362,0.04231614,0.07493197,-0.08920516,0.07493198,0.14977016,-0.11546470,-0.08920515,-0.11546470,0.33325010,0.00674095,-0.01647666,-0.00091040,0.69494526,0.00000000,0.00000000,0.00000000,0.61448867,0.00000000,0.00000000,-0.00000000,0.64256796,-4.17221594,0.36763862,-8.78157139,10291009.21005011,0.00000000,0.00000000,0.00000000,7348085.28795838,0.00000000,0.00000000,-0.00000000,9135388.76920938,0.57246151,0.57453773,1.55718440,0.95542157,0.01863291,0.28112309,-0.08827374
2.07820368,0.97586083,-0.02518734,-0.21650143,0.01372409,0.04234611,0.07496716,-0.08924528,0.07496715,0.14980957,-0.11552053,-0.08924527,-0.11552050,0.33324165,0.01096934,-0.01327654,-0.00359648,0.69494526,0.00000000,0.00000000,0.00000000,0.61448867,0.00000000,0.00000000,-0.00000000,0.64256796,-4.18414640,0.38899258,-8.79348087,10291009.21005011,0.00000000,0.00000000,0.00000000,7348085.28795838,0.00000000,0.00000000,-0.00000000,9135388.76920938,0.57250456,0.57450753,1.55711188,0.95540249,0.01867422,0.28117706,-0.08829965
2.08314346,0.97583455,-0.02517580,-0.21662261,0.01370453,0.04237375,0.07499836,-0.08928493,0.07499835,0.14984367,-0.11557249,-0.08928493,-0.11557249,0.33323271,0.01150883,-0.01274290,-0.00792317,0.69494526,0.00000000,0.00000000,0.00000000,0.61448867,0.00000000,0.00000000,-0.00000000,0.64256796,-4.21755219,0.40057430,-8.79106140,10291009.21005011,0.00000000,0.00000000,0.00000000,7348085.28795838,0.00000000,0.00000000,-0.00000000,9135388.76920938,0.57254543,0.57447707,1.55704251,0.95538441,0.01870320,0.28122931,-0.08832273
2.08808349,0.97580951,-0.02516692,-0.21673779,0.01367950,0.04240189,0.07503011,-0.08932260,0.07503012,0.14987797,-0.11562398,-0.08932261,-0.11562397,0.33322426,0.01415262,-0.01166372,-0.00899767,0.69494526,0.00000000,0.00000000,0.00000000,0.61448867,0.00000000,0.00000000,-0.00000000,0.64256796,-4.23661423,0.40514433,-8.78387928,10291009.21005011,0.00000000,0.00000000,0.00000000,7348085.28795838,0.00000000,0.00000000,-0.00000000,9135388.76920938,0.57258574,0.57444511,1.55697344,0.95536680,0.01872201,0.28128129,-0.08834365
2.10290359,0.97573107,-0.02517580,-0.21709041,0.01366751,0.04248455,0.07512806,-0.08944652,0.07512806,0.14999164,-0.11578026,-0.08944652,-0.11578028,0.33321176,0.00777159,-0.01436445,0.00071250,0.69494526,0.00000000,0.00000000,0.00000000,0.61448867,0.00000000,0.00000000,-0.00000000,0.64256796,-4.24846506,0.45990327,-8.81723881,10291009.21005011,0.00000000,0.00000000,0.00000000,7348085.28795838,0.00000000,0.00000000,-0.00000000,9135388.76920938,0.57273673,0.57430425,1.55670618,0.95530589,0.01872002,0.28147016,-0.08840116
2.12266346,0.97562987,-0.02534128,-0.21751682,0.01380636,0.04259471,0.07528125,-0.08962671,0.07528126,0.15020019,-0.11599986,-0.08962671,-0.11599988,0.33324393,0.00187453,-0.01127863,0.02073687,0.69494526,0.00000000,0.00000000,0.00000000,0.61448867,0.00000000,0.00000000,-0.00000000,0.64256796,-4.24379873,0.45996308,-8.87932777,10291009.21005011,0.00000000,0.00000000,0.00000000,7348085.28795838,0.00000000,0.00000000,-0.00000000,9135388.76920938,0.57284406,0.57417942,1.55651264,0.95526545,0.01876306,0.28159201,-0.08844095
2.12760349,0.97560525,-0.02540764,-0.21761556,0.01386882,0.04262172,0.07532244,-0.08967440,0.07532244,0.15026014,-0.11605536,-0.08967441,-0.11605538,0.33326128,-0.00184831,-0.01079256,0.02397486,0.69494526,0.00000000,0.00000000,0.00000000,0.61448867,0.00000000,0.00000000,-0.00000000,0.64256796,-4.23425484,0.44097063,-8.87935162,10291009.21005011,0.00000000,0.00000000,0.00000000,7348085.28795838,0.00000000,0.00000000,-0.00000000,9135388.76920938,0.57287567,0.57413814,1.55645625,0.95525343,0.01879996,0.28162524,-0.08845719
2.13254352,0.97558075,-0.02548523,-0.21771209,0.01393528,0.04265031,0.07536695,-0.08972284,0.07536694,0.15032597,-0.11611292,-0.08972284,-0.11611291,0.33328030,0.00131319,-0.01076290,0.02830887,0.69494526,0.00000000,0.00000000,0.00000000,0.61448867,0.00000000,0.00000000,-0.00000000,0.64256796,-4.21034050,0.41735077,-8.87938309,10291009.21005011,0.00000000,0.00000000,0.00000000,7348085.28795838,0.00000000,0.00000000,-0.00000000,9135388.76920938,0.57290839,0.57409293,1.55639816,0.95524107,0.01884531,0.28165797,-0.08847677
2.13748356,0.97555685,-0.02556608,-0.21780504,0.01400567,0.04267834,0.07541077,-0.08977102,0.07541077,0.15038931,-0.11617025,-0.08977103,-0.11617025,0.33330121,-0.00347308,-0.00870895,0.02938307,0.69494526,0.00000000,0.00000000,0.00000000,0.61448867,0.00000000,0.00000000,-0.00000000,0.64256796,-4.18170738,0.39855909,-8.89374447,10291009.21005011,0.00000000,0.00000000,0.00000000,7348085.28795838,0.00000000,0.00000000,-0.00000000,9135388.76920938,0.57293931,0.57404763,1.55634349,0.95522960,0.01889119,0.28168706,-0.08849818
2.14242359,0.97553372,-0.02564988,-0.21789411,0.01407783,0.04270600,0.07545515,-0.08981849,0.07545515,0.15045572,-0.11622692,-0.08981850,-0.11622692,0.33332386,-0.00295158,-0.00712591,0.02993194,0.69494526,0.00000000,0.00000000,0.00000000,0.61448867,0.00000000,0.00000000,-0.00000000,0.64256796,-4.17218971,0.38195565,-8.90093136,10291009.21005011,0.00000000,0.00000000,0.00000000,7348085.28795838,0.00000000,0.00000000,-0.00000000,9135388.76920938,0.57296859,0.57400228,1.55629194,0.95521901,0.01893488,0.28171277,-0.08852130
2.14736362,0.97550994,-0.02573253,-0.21798548,0.01416016,0.04273200,0.07549769,-0.08986749,0.07549769,0.15052146,-0.11628147,-0.08986750,-0.11628149,0.33334845,-0.00506825,-0.00819996,0.03100571,0.69494526,0.00000000,0.00000000,0.00000000,0.61448867,0.00000000,0.00000000,-0.00000000,0.64256796,-4.16980362,0.35572839,-8.87708187,10291009.21005011,0.00000000,0.00000000,0.00000000,7348085.28795838,0.00000000,0.00000000,-0.00000000,9135388.76920938,0.57299847,0.57395342,1.55623957,0.95520847,0.01897915,0.28173719,-0.08854789
2.15230365,0.97548681,-0.02581751,-0.21807481,0.01422525,0.04276138,0.07554415,-0.08991448,0.07554414,0.15059028,-0.11633967,-0.08991449,-0.11633968,0.33336933,0.00074833,-0.00551054,0.03103097,0.69494526,0.00000000,0.00000000,0.00000000,0.61448867,0.00000000,0.00000000,-0.00000000,0.64256796,-4.17221594,0.31990689,-8.85563087,10291009.21005011,0.00000000,0.00000000,0.00000000,7348085.28795838,0.00000000,0.00000000,-0.00000000,9135388.76920938,0.57302641,0.57390531,1.55619086,0.95519884,0.01901983,0.28175841,-0.08857555
2.16712349,0.97541845,-0.02597718,-0.21836101,0.01422944,0.04286589,0.07568429,-0.09003599,0.07568429,0.15076009,-0.11652108,-0.09003599,-0.11652108,0.33338409,0.00238501,-0.00443232,0.01100966,0.69494526,0.00000000,0.00000000,0.00000000,0.61448867,0.00000000,0.00000000,-0.00000000,0.64256796,-4.07910585,0.22303021,-8.93695068,10291009.21005011,0.00000000,0.00000000,0.00000000,7348085.28795838,0.00000000,0.00000000,-0.00000000,9135388.76920938,0.57319522,0.57356583,1.55590454,0.95514392,0.01922067,0.28186011,-0.08880056
2.18441347,0.97540635,-0.02590308,-0.21845198,0.01379124,0.04295975,0.07576174,-0.09004865,0.07576174,0.15075392,-0.11664255,-0.09004868,-0.11664254,0.33337512,0.01781792,-0.00478920,-0.01114151,0.69494526,0.00000000,0.00000000,0.00000000,0.61448867,0.00000000,0.00000000,-0.00000000,0.64256796,-4.09098339,0.23721950,-8.89395046,10291009.21005011,0.00000000,0.00000000,0.00000000,7348085.28795838,0.00000000,0.00000000,-0.00000000,9135388.76920938,0.57320690,0.57353954,1.55588539,0.95514021,0.01922972,0.28186610,-0.08881949
2.18935351,0.97541022,-0.02585442,-0.21844962,0.01364460,0.04297840,0.07576958,-0.09004000,0.07576958,0.15072953,-0.11666036,-0.09004001,-0.11666034,0.33337685,0.01516433,-0.00218472,-0.01547189,0.69494526,0.00000000,0.00000000,0.00000000,0.61448867,0.00000000,0.00000000,-0.00000000,0.64256796,-4.11007214,0.23940541,-8.94646072,10291009.21005011,0.00000000,0.00000000,0.00000000,7348085.28795838,0.00000000,0.00000000,-0.00000000,9135388.76920938,0.57321209,0.57352779,1.55587694,0.95513858,0.01923348,0.28186871,-0.08882795
2.20911364,0.97544074,-0.02567339,-0.21836700,0.01311787,0.04303149,0.07577853,-0.08999169,0.07577853,0.15061893,-0.11669823,-0.08999169,-0.11669822,0.33342145,0.00610747,-0.00018007,-0.00304246,0.69494526,0.00000000,0.00000000,0.00000000,0.61448867,0.00000000,0.00000000,-0.00000000,0.64256796,-4.21985865,0.32178456,-9.02749252,10291009.21005011,0.00000000,0.00000000,0.00000000,7348085.28795838,0.00000000,0.00000000,-0.00000000,9135388.76920938,0.57331559,0.57329167,1.55572548,0.95511397,0.01927848,0.28190274,-0.08897467
2.21405367,0.97545016,-0.02565801,-0.21833298,0.01301295,0.04304463,0.07578447,-0.08998115,0.07578444,0.15060032,-0.11670866,-0.08998115,-0.11670870,0.33344355,0.00554559,0.00191472,0.00237097,0.69494526,0.00000000,0.00000000,0.00000000,0.61448867,0.00000000,0.00000000,-0.00000000,0.64256796,-4.23892069,0.35499370,-9.05132103,10291009.21005011,0.00000000,0.00000000,0.00000000,7348085.28795838,0.00000000,0.00000000,-0.00000000,9135388.76920938,0.57334044,0.57323667,1.55569595,0.95511113,0.01927917,0.28190466,-0.08899895
2.21899344,0.97545975,-0.02566585,-0.21829472,0.01291986,0.04306051,0.07579542,-0.08997286,0.07579540,0.15058806,-0.11672217,-0.08997285,-0.11672219,0.33347059,0.00285725,0.00240698,0.01427096,0.69494526,0.00000000,0.00000000,0.00000000,0.61448867,0.00000000,0.00000000,-0.00000000,0.64256796,-4.25562334,0.36913759,-9.07517242,10291009.21005011,0.00000000,0.00000000,0.00000000,7348085.28795838,0.00000000,0.00000000,-0.00000000,9135388.76920938,0.57336644,0.57318052,1.55566830,0.95510927,0.01927373,0.28190475,-0.08901975
2.23381354,0.97549254,-0.02578835,-0.21814464,0.01273516,0.04310791,0.07584146,-0.08995578,0.07584144,0.15057999,-0.11676864,-0.08995579,-0.11676864,0.33358536,-0.00571343,0.00756759,0.03591225,0.69494526,0.00000000,0.00000000,0.00000000,0.61448867,0.00000000,0.00000000,-0.00000000,0.64256796,-4.21749878,0.32658523,-9.06091690,10291009.21005011,0.00000000,0.00000000,0.00000000,7348085.28795838,0.00000000,0.00000000,-0.00000000,9135388.76920938,0.57347001,0.57297932,1.55559508,0.95511030,0.01919016,0.28189010,-0.08907315
2.24863364,0.97553325,-0.02598722,-0.21794738,0.01258568,0.04315851,0.07589924,-0.08993563,0.07589924,0.15058912,-0.11681581,-0.08993565,-0.11681580,0.33372461,-0.00517501,0.00915330,0.03267727,0.69494526,0.00000000,0.00000000,0.00000000,0.61448867,0.00000000,0.00000000,-0.00000000,0.64256796,-4.10781860,0.17500474,-9.17812443,10291009.21005011,0.00000000,0.00000000,0.00000000,7348085.28795838,0.00000000,0.00000000,-0.00000000,9135388.76920938,0.57356350,0.57284076,1.55558089,0.95511609,0.01908322,0.28186101,-0.08912609
2.25357367,0.97555101,-0.02603963,-0.21786484,0.01253229,0.04316929,0.07591099,-0.08992227,0.07591098,0.15058501,-0.11682321,-0.08992227,-0.11682322,0.33377452,-0.00255195,0.01444082,0.02782053,0.69494526,0.00000000,0.00000000,0.00000000,0.61448867,0.00000000,0.00000000,-0.00000000,0.64256796,-4.06956148,0.12528047,-9.17580128,10291009.21005011,0.00000000,0.00000000,0.00000000,7348085.28795838,0.00000000,0.00000000,-0.00000000,9135388.76920938,0.57357484,0.57282676,1.55558207,0.95511678,0.01907327,0.28185692,-0.08913380
2.27086365,0.97562546,-0.02611278,-0.21754067,0.01221191,0.04319913,0.07592370,-0.08984354,0.07592370,0.15051369,-0.11681502,-0.08984354,-0.11681504,0.33393039,0.01340805,0.01672049,0.00406059,0.69494526,0.00000000,0.00000000,0.00000000,0.61448867,0.00000000,0.00000000,-0.00000000,0.64256796,-3.98130345,0.09279878,-9.16156483,10291009.21005011,0.00000000,0.00000000,0.00000000,7348085.28795838,0.00000000,0.00000000,-0.00000000,9135388.76920938,0.57374173,0.57267408,1.55564910,0.95512549,0.01904912,0.28178854,-0.08926168
2.27580368,0.97565079,-0.02610136,-0.21743529,0.01209421,0.04320232,0.07591734,-0.08981185,0.07591734,0.15047835,-0.11680400,-0.08981184,-0.11680398,0.33397150,0.01976707,0.02152347,-0.00456638,0.69494526,0.00000000,0.00000000,0.00000000,0.61448867,0.00000000,0.00000000,-0.00000000,0.64256796,-3.95746922,0.09066542,-9.19023514,10291009.21005011,0.00000000,0.00000000,0.00000000,7348085.28795838,0.00000000,0.00000000,-0.00000000,9135388.76920938,0.57374456,0.57267216,1.55565083,0.95512569,0.01904984,0.28178717,-0.08926371
2.28074346,0.97567976,-0.02607566,-0.21731515,0.01196787,0.04320087,0.07590347,-0.08977401,0.07590347,0.15043286,-0.11678313,-0.08977401,-0.11678315,0.33401548,0.02507483,0.02315863,-0.01050055,0.69494526,0.00000000,0.00000000,0.00000000,0.61448867,0.00000000,0.00000000,-0.00000000,0.64256796,-3.92883658,0.09335300,-9.19502449,10291009.21005011,0.00000000,0.00000000,0.00000000,7348085.28795838,0.00000000,0.00000000,-0.00000000,9135388.76920938,0.57379655,0.57263995,1.55568489,0.95513013,0.01906432,0.28176018,-0.08929825
2.29062352,0.97574604,-0.02600527,-0.21704170,0.01167544,0.04319495,0.07586678,-0.08968378,0.07586679,0.15032159,-0.11672964,-0.08968376,-0.11672965,0.33410434,0.03247989,0.02954975,-0.01966623,0.69494526,0.00000000,0.00000000,0.00000000,0.61448867,0.00000000,0.00000000,-0.00000000,0.64256796,-3.91926551,0.08629116,-9.14250946,10291009.21005011,0.00000000,0.00000000,0.00000000,7348085.28795838,0.00000000,0.00000000,-0.00000000,9135388.76920938,0.57397020,0.57256507,1.55582222,0.95515540,0.01910742,0.28164870,-0.08937040
2.29556356,0.97578084,-0.02594762,-0.21690115,0.01150573,0.04319047,0.07584346,-0.08963330,0.07584347,0.15025768,-0.11669676,-0.08963330,-0.11669675,0.33414458,0.04203792,0.03070424,-0.02992374,0.69494526,0.00000000,0.00000000,0.00000000,0.61448867,0.00000000,0.00000000,-0.00000000,0.64256796,-3.92398477,0.06237030,-9.07567501,10291009.21005011,0.00000000,0.00000000,0.00000000,7348085.28795838,0.00000000,0.00000000,-0.00000000,9135388.76920938,0.57400429,0.57255497,1.55585189,0.95516181,0.01911423,0.28162439,-0.08937712
2.31038365,0.97589350,-0.02573339,-0.21645045,0.01090191,0.04318151,0.07576430,-0.08946251,0.07576432,0.15002905,-0.11658990,-0.08946250,-0.11658987,0.33425242,0.05738669,0.03928070,-0.03742922,0.69494526,0.00000000,0.00000000,0.00000000,0.61448867,0.00000000,0.00000000,-0.00000000,0.64256796,-3.91929221,0.07197404,-9.09716225,10291009.21005011,0.00000000,0.00000000,0.00000000,7348085.28795838,0.00000000,0.00000000,-0.00000000,9135388.76920938,0.57452229,0.57250702,1.55633261,0.95527859,0.01927617,0.28123882,-0.08930826
2.32520349,0.97601926,-0.02557686,-0.21593344,0.01024809,0.04318691,0.07569389,-0.08927588,0.07569390,0.14978389,-0.11647918,-0.08927587,-0.11647920,0.33437422,0.05892744,0.03823505,-0.01848579,0.69494526,0.00000000,0.00000000,0.00000000,0.61448867,0.00000000,0.00000000,-0.00000000,0.64256796,-4.04098177,0.18763758,-8.98476410,10291009.21005011,0.00000000,0.00000000,0.00000000,7348085.28795838,0.00000000,0.00000000,-0.00000000,9135388.76920938,0.57453308,0.57250735,1.55634264,0.95528097,0.01928359,0.28123103,-0.08930580
2.33014352,0.97605902,-0.02557307,-0.21576342,0.01004840,0.04319823,0.07568519,-0.08922062,0.07568519,0.14971872,-0.11645636,-0.08922062,-0.11645639,0.33441900,0.05887597,0.04138439,-0.00765410,0.69494526,0.00000000,0.00000000,0.00000000,0.61448867,0.00000000,0.00000000,-0.00000000,0.64256796,-4.06722879,0.19452141,-8.97280312,10291009.21005011,0.00000000,0.00000000,0.00000000,7348085.28795838,0.00000000,0.00000000,-0.00000000,9135388.76920938,0.57457698,0.57250906,1.55638338,0.95529050,0.01931591,0.28119954,-0.08929596
2.34496362,0.97617960,-0.02573339,-0.21522073,0.00954961,0.04324986,0.07569468,-0.08907107,0.07569468,0.14956631,-0.11641125,-0.08907107,-0.11641127,0.33459105,0.04281159,0.04645627,0.03506368,0.69494526,0.00000000,0.00000000,0.00000000,0.61448867,0.00000000,0.00000000,-0.00000000,0.64256796,-4.03615665,0.15427068,-9.05880642,10291009.21005011,0.00000000,0.00000000,0.00000000,7348085.28795838,0.00000000,0.00000000,-0.00000000,9135388.76920938,0.57503089,0.57255043,1.55679135,0.95537715,0.01977531,0.28089232,-0.08923533
2.34990365,0.97621816,-0.02584578,-0.21503828,0.00941446,0.04327561,0.07571399,-0.08902892,0.07571400,0.14953763,-0.11640771,-0.08902892,-0.11640771,0.33465764,0.04279293,0.04540015,0.04263544,0.69494526,0.00000000,0.00000000,0.00000000,0.61448867,0.00000000,0.00000000,-0.00000000,0.64256796,-4.01226950,0.12588003,-9.01825905,10291009.21005011,0.00000000,0.00000000,0.00000000,7348085.28795838,0.00000000,0.00000000,-0.00000000,9135388.76920938,0.57508986,0.57255810,1.55684238,0.95538688,0.01984324,0.28085471,-0.08923442
2.35731357,0.97627026,-0.02604221,-0.21478555,0.00923549,0.04332071,0.07575300,-0.08897642,0.07575301,0.14950716,-0.11641206,-0.08897642,-0.11641206,0.33475821,0.03644636,0.03849316,0.05342636,0.69494526,0.00000000,0.00000000,0.00000000,0.61448867,0.00000000,0.00000000,-0.00000000,0.64256796,-3.96934652,0.04041685,-8.97539330,10291009.21005011,0.00000000,0.00000000,0.00000000,7348085.28795838,0.00000000,0.00000000,-0.00000000,9135388.76920938,0.57530022,0.57258856,1.55702044,0.95541938,0.02008085,0.28072444,-0.08924325
2.37213367,0.97636610,-0.02643830,-0.21431653,0.00887007,0.04342155,0.07584477,-0.08888032,0.07584477,0.14946335,-0.11644280,-0.08888032,-0.11644281,0.33494383,0.03487458,0.03795417,0.04638064,0.69494526,0.00000000,0.00000000,0.00000000,0.61448867,0.00000000,0.00000000,-0.00000000,0.64256796,-3.67580605,-0.13311023,-9.17389965,10291009.21005011,0.00000000,0.00000000,0.00000000,7348085.28795838,0.00000000,0.00000000,-0.00000000,9135388.76920938,0.57581182,0.57267819,1.55742775,0.95548734,0.02055140,0.28043087,-0.08933148
2.38695351,0.97646010,-0.02675596,-0.21386401,0.00848191,0.04351196,0.07591814,-0.08877872,0.07591813,0.14940371,-0.11645937,-0.08877872,-0.11645935,0.33511636,0.04446994,0.03490271,0.03720612,0.69494526,0.00000000,0.00000000,0.00000000,0.61448867,0.00000000,0.00000000,-0.00000000,0.64256796,-3.64009404,-0.05874255,-9.23832130,10291009.21005011,0.00000000,0.00000000,0.00000000,7348085.28795838,0.00000000,0.00000000,-0.00000000,9135388.76920938,0.57645144,0.57281012,1.55788983,0.95555514,0.02091055,0.28011061,-0.08952752
2.39189354,0.97649252,-0.02684853,-0.21370962,0.00834197,0.04354071,0.07593842,-0.08874171,0.07593843,0.14937649,-0.11646017,-0.08874171,-0.11646017,0.33517264,0.04449454,0.03227513,0.03340897,0.69494526,0.00000000,0.00000000,0.00000000,0.61448867,0.00000000,0.00000000,-0.00000000,0.64256796,-3.65915608,-0.02076024,-9.26692009,10291009.21005011,0.00000000,0.00000000,0.00000000,7348085.28795838,0.00000000,0.00000000,-0.00000000,9135388.76920938,0.57656614,0.57283525,1.55796782,0.95556550,0.02095585,0.28005878,-0.08956843
2.40671364,0.97658694,-0.02717840,-0.21325079,0.00795988,0.04363383,0.07601243,-0.08863957,0.07601245,0.14931236,-0.11647757,-0.08863957,-0.11647755,0.33534825,0.03543265,0.03585825,0.04421880,0.69494526,0.00000000,0.00000000,0.00000000,0.61448867,0.00000000,0.00000000,-0.00000000,0.64256796,-3.79518914,0.05656983,-9.33600330,10291009.21005011,0.00000000,0.00000000,0.00000000,7348085.28795838,0.00000000,0.00000000,-0.00000000,9135388.76920938,0.57750208,0.57304877,1.55856175,0.95563089,0.02126571,0.27969511,-0.08993342
2.41165367,0.97662264,-0.02730749,-0.21307459,0.00785625,0.04366028,0.07603612,-0.08860250,0.07603611,0.14929608,-0.11647875,-0.08860250,-0.11647877,0.33541925,0.03643877,0.04007160,0.05071991,0.69494526,0.00000000,0.00000000,0.00000000,0.61448867,0.00000000,0.00000000,-0.00000000,0.64256796,-3.81181216,0.08979921,-9.34311581,10291009.21005011,0.00000000,0.00000000,0.00000000,7348085.28795838,0.00000000,0.00000000,-0.00000000,9135388.76920938,0.57754206,0.57305809,1.55858571,0.95563299,0.02127884,0.27968166,-0.08994977
2.41659370,0.97665936,-0.02745252,-0.21289119,0.00775891,0.04368822,0.07606242,-0.08856544,0.07606242,0.14928148,-0.11648047,-0.08856544,-0.11648048,0.33549457,0.03481483,0.04320785,0.05559403,0.69494526,0.00000000,0.00000000,0.00000000,0.61448867,0.00000000,0.00000000,-0.00000000,0.64256796,-3.84283161,0.12288535,-9.27860069,10291009.21005011,0.00000000,0.00000000,0.00000000,7348085.28795838,0.00000000,0.00000000,-0.00000000,9135388.76920938,0.57782667,0.57312476,1.55875350,0.95564687,0.02137059,0.27958939,-0.09006740
2.42153347,0.97669721,-0.02761192,-0.21270037,0.00766617,0.04371757,0.07609169,-0.08852796,0.07609169,0.14927111,-0.11648306,-0.08852795,-0.11648305,0.33557373,0.03477967,0.04635929,0.06481108,0.69494526,0.00000000,0.00000000,0.00000000,0.61448867,0.00000000,0.00000000,-0.00000000,0.64256796,-3.87157059,0.14168669,-9.17830086,10291009.21005011,0.00000000,0.00000000,0.00000000,7348085.28795838,0.00000000,0.00000000,-0.00000000,9135388.76920938,0.57812911,0.57319610,1.55892689,0.95566004,0.02146103,0.27949639,-0.09019470
2.43635357,0.97680533,-0.02825077,-0.21212547,0.00748521,0.04382553,0.07621871,-0.08843790,0.07621871,0.14928898,-0.11652058,-0.08843789,-0.11652057,0.33583984,0.02243198,0.05147068,0.10428996,0.69494526,0.00000000,0.00000000,0.00000000,0.61448867,0.00000000,0.00000000,-0.00000000,0.64256796,-3.86910486,0.25387412,-9.20445061,10291009.21005011,0.00000000,0.00000000,0.00000000,7348085.28795838,0.00000000,0.00000000,-0.00000000,9135388.76920938,0.57928147,0.57347132,1.55954888,0.95570433,0.02168618,0.27916250,-0.09070414
2.45117367,0.97691417,-0.02920059,-0.21149558,0.00745729,0.04396979,0.07641967,-0.08837330,0.07641968,0.14940011,-0.11660564,-0.08837331,-0.11660563,0.33616828,0.01329542,0.05346071,0.14377881,0.69494526,0.00000000,0.00000000,0.00000000,0.61448867,0.00000000,0.00000000,-0.00000000,0.64256796,-3.82379580,0.24242017,-9.07556629,10291009.21005011,0.00000000,0.00000000,0.00000000,7348085.28795838,0.00000000,0.00000000,-0.00000000,9135388.76920938,0.58051753,0.57377047,1.56016077,0.95574879,0.02173521,0.27879962,-0.09133787
2.45611344,0.97694558,-0.02956925,-0.21129873,0.00747326,0.04402841,0.07650379,-0.08836235,0.07650379,0.14945796,-0.11664764,-0.08836234,-0.11664763,0.33628249,0.01064929,0.04869608,0.15241849,0.69494526,0.00000000,0.00000000,0.00000000,0.61448867,0.00000000,0.00000000,-0.00000000,0.64256796,-3.83095407,0.16120099,-9.00401402,10291009.21005011,0.00000000,0.00000000,0.00000000,7348085.28795838,0.00000000,0.00000000,-0.00000000,9135388.76920938,0.58054817,0.57377792,1.56017532,0.95574988,0.02173438,0.27879028,-0.09135515
2.47093354,0.97705084,-0.03063454,-0.21065757,0.00752096,0.04418425,0.07673673,-0.08830980,0.07673674,0.14961936,-0.11675563,-0.08830979,-0.11675561,0.33663580,0.01060780,0.06448170,0.13622910,0.69494526,0.00000000,0.00000000,0.00000000,0.61448867,0.00000000,0.00000000,-0.00000000,0.64256796,-3.69741297,-0.07604580,-9.03775692,10291009.21005011,0.00000000,0.00000000,0.00000000,7348085.28795838,0.00000000,0.00000000,-0.00000000,9135388.76920938,0.58203160,0.57414005,1.56085014,0.95580002,0.02165777,0.27832392,-0.09226627
2.47587357,0.97708952,-0.03093971,-0.21043393,0.00750906,0.04422787,0.07679914,-0.08828244,0.07679916,0.14965411,-0.11677404,-0.08828244,-0.11677404,0.33675050,0.01278557,0.06188171,0.12215759,0.69494526,0.00000000,0.00000000,0.00000000,0.61448867,0.00000000,0.00000000,-0.00000000,0.64256796,-3.65207744,-0.12807414,-8.95904541,10291009.21005011,0.00000000,0.00000000,0.00000000,7348085.28795838,0.00000000,0.00000000,-0.00000000,9135388.76920938,0.58223626,0.57419023,1.56093923,0.95580630,0.02164938,0.27825889,-0.09239916
2.49316356,0.97721261,-0.03174978,-0.20974734,0.00731608,0.04436804,0.07697095,-0.08817684,0.07697095,0.14970603,-0.11681749,-0.08817684,-0.11681749,0.33708011,0.02571613,0.04783714,0.07668908,0.69494526,0.00000000,0.00000000,0.00000000,0.61448867,0.00000000,0.00000000,-0.00000000,0.64256796,-3.49926233,-0.10738581,-8.98298645,10291009.21005011,0.00000000,0.00000000,0.00000000,7348085.28795838,0.00000000,0.00000000,-0.00000000,9135388.76920938,0.58390677,0.57460431,1.56163676,0.95585509,0.02163952,0.27773375,-0.09347051
2.50798365,0.97731185,-0.03225198,-0.20921645,0.00705900,0.04447166,0.07707744,-0.08807649,0.07707741,0.14969832,-0.11683309,-0.08807649,-0.11683310,0.33731699,0.03377889,0.03793632,0.06045301,0.69494526,0.00000000,0.00000000,0.00000000,0.61448867,0.00000000,0.00000000,-0.00000000,0.64256796,-3.57802963,-0.02468061,-9.06403542,10291009.21005011,0.00000000,0.00000000,0.00000000,7348085.28795838,0.00000000,0.00000000,-0.00000000,9135388.76920938,0.58536250,0.57497623,1.56220546,0.95590021,0.02166960,0.27729130,-0.09431194
2.52280349,0.97740483,-0.03268887,-0.20872279,0.00678781,0.04456970,0.07717121,-0.08797909,0.07717121,0.14967709,-0.11684569,-0.08797908,-0.11684569,0.33753613,0.02958973,0.03263688,0.05718744,0.69494526,0.00000000,0.00000000,0.00000000,0.61448867,0.00000000,0.00000000,-0.00000000,0.64256796,-3.68548250,0.06011504,-8.96123314,10291009.21005011,0.00000000,0.00000000,0.00000000,7348085.28795838,0.00000000,0.00000000,-0.00000000,9135388.76920938,0.58708600,0.57543654,1.56283277,0.95596282,0.02163254,0.27679795,-0.09513156
2.52774352,0.97743285,-0.03283669,-0.20857127,0.00669498,0.04460637,0.07720684,-0.08795013,0.07720683,0.14967538,-0.11685560,-0.08795013,-0.11685563,0.33760460,0.03117996,0.03107384,0.06043510,0.69494526,0.00000000,0.00000000,0.00000000,0.61448867,0.00000000,0.00000000,-0.00000000,0.64256796,-3.73081803,0.06918482,-8.90628338,10291009.21005011,0.00000000,0.00000000,0.00000000,7348085.28795838,0.00000000,0.00000000,-0.00000000,9135388.76920938,0.58728804,0.57549198,1.56290295,0.95597011,0.02162523,0.27674435,-0.09521590
2.54256362,0.97750694,-0.03337256,-0.20814507,0.00648698,0.04473001,0.07733959,-0.08788606,0.07733960,0.14970317,-0.11691110,-0.08788607,-0.11691111,0.33782222,0.01524464,0.02564013,0.08147895,0.69494526,0.00000000,0.00000000,0.00000000,0.61448867,0.00000000,0.00000000,-0.00000000,0.64256796,-3.81666398,0.12555508,-8.97540951,10291009.21005011,0.00000000,0.00000000,0.00000000,7348085.28795838,0.00000000,0.00000000,-0.00000000,9135388.76920938,0.58927043,0.57605142,1.56355321,0.95603085,0.02157400,0.27628557,-0.09594717
2.54750365,0.97752994,-0.03358864,-0.20800337,0.00645012,0.04477348,0.07739304,-0.08787080,0.07739304,0.14972951,-0.11693829,-0.08787079,-0.11693829,0.33790270,0.01041861,0.02926641,0.09175508,0.69494526,0.00000000,0.00000000,0.00000000,0.61448867,0.00000000,0.00000000,-0.00000000,0.64256796,-3.82618189,0.14215845,-8.93240929,10291009.21005011,0.00000000,0.00000000,0.00000000,7348085.28795838,0.00000000,0.00000000,-0.00000000,9135388.76920938,0.58958235,0.57614172,1.56364927,0.95603834,0.02157143,0.27622360,-0.09605149
2.55491357,0.97756153,-0.03394630,-0.20779796,0.00641073,0.04484531,0.07748406,-0.08785428,0.07748406,0.14978324,-0.11698589,-0.08785429,-0.11698590,0.33802755,0.00879953,0.02766494,0.10690437,0.69494526,0.00000000,0.00000000,0.00000000,0.61448867,0.00000000,0.00000000,-0.00000000,0.64256796,-3.84055138,0.17303842,-8.84403896,10291009.21005011,0.00000000,0.00000000,0.00000000,7348085.28795838,0.00000000,0.00000000,-0.00000000,9135388.76920938,0.59026911,0.57634242,1.56385491,0.95605267,0.02157263,0.27609553,-0.09627652
2.56973367,0.97761267,-0.03475768,-0.20742303,0.00640375,0.04500442,0.07769767,-0.08784620,0.07769767,0.14993566,-0.11711251,-0.08784622,-0.11711252,0.33828763,0.00078728,0.02757311,0.12310644,0.69494526,0.00000000,0.00000000,0.00000000,0.61448867,0.00000000,0.00000000,-0.00000000,0.64256796,-3.77122259,0.14272811,-8.78202248,10291009.21005011,0.00000000,0.00000000,0.00000000,7348085.28795838,0.00000000,0.00000000,-0.00000000,9135388.76920938,0.59260167,0.57704176,1.56449408,0.95607811,0.02162527,0.27573735,-0.09703557
2.58949354,0.97766113,-0.03586147,-0.20700938,0.00630998,0.04526266,0.07802398,-0.08785370,0.07802399,0.15016300,-0.11732461,-0.08785370,-0.11732458,0.33859522,0.00675782,0.01081141,0.11280256,0.69494526,0.00000000,0.00000000,0.00000000,0.61448867,0.00000000,0.00000000,-0.00000000,0.64256796,-3.66390181,0.05317137,-8.73681736,10291009.21005011,0.00000000,0.00000000,0.00000000,7348085.28795838,0.00000000,0.00000000,-0.00000000,9135388.76920938,0.59472560,0.57770205,1.56499651,0.95606967,0.02165063,0.27550620,-0.09776696
2.59443357,0.97766989,-0.03611838,-0.20692408,0.00628158,0.04532713,0.07810459,-0.08785827,0.07810459,0.15022021,-0.11738263,-0.08785827,-0.11738263,0.33866368,0.00994072,0.01295040,0.10740492,0.69494526,0.00000000,0.00000000,0.00000000,0.61448867,0.00000000,0.00000000,-0.00000000,0.64256796,-3.64719939,0.02948108,-8.78459930,10291009.21005011,0.00000000,0.00000000,0.00000000,7348085.28795838,0.00000000,0.00000000,-0.00000000,9135388.76920938,0.59521678,0.57785805,1.56510179,0.95606376,0.02164586,0.27546514,-0.09794130
2.60925367,0.97770023,-0.03683935,-0.20665780,0.00613760,0.04552098,0.07833439,-0.08785921,0.07833438,0.15036459,-0.11754030,-0.08785921,-0.11754029,0.33885949,0.01479043,0.00669572,0.09658548,0.69494526,0.00000000,0.00000000,0.00000000,0.61448867,0.00000000,0.00000000,-0.00000000,0.64256796,-3.70454478,0.05752538,-8.76544476,10291009.21005011,0.00000000,0.00000000,0.00000000,7348085.28795838,0.00000000,0.00000000,-0.00000000,9135388.76920938,0.59767187,0.57865598,1.56556789,0.95601627,0.02156668,0.27531974,-0.09882718
2.61419344,0.97770852,-0.03705975,-0.20658067,0.00608395,0.04558416,0.07840734,-0.08786051,0.07840734,0.15040819,-0.11759213,-0.08786051,-0.11759213,0.33891926,0.01216130,0.00561944,0.09170466,0.69494526,0.00000000,0.00000000,0.00000000,0.61448867,0.00000000,0.00000000,-0.00000000,0.64256796,-3.72840571,0.07398066,-8.74392700,10291009.21005011,0.00000000,0.00000000,0.00000000,7348085.28795838,0.00000000,0.00000000,-0.00000000,9135388.76920938,0.59992989,0.57941292,1.56591549,0.95595456,0.02147974,0.27524322,-0.09965275
2.61913347,0.97771537,-0.03727305,-0.20651136,0.00603230,0.04564652,0.07847967,-0.08786350,0.07847967,0.15045390,-0.11764487,-0.08786350,-0.11764487,0.33897658,0.01322685,0.00457885,0.09007699,0.69494526,0.00000000,0.00000000,0.00000000,0.61448867,0.00000000,0.00000000,-0.00000000,0.64256796,-3.71880841,0.08600909,-8.74630260,10291009.21005011,0.00000000,0.00000000,0.00000000,7348085.28795838,0.00000000,0.00000000,-0.00000000,9135388.76920938,0.60007593,0.57946252,1.56593554,0.95595021,0.02147548,0.27523930,-0.09970622
2.62407351,0.97772199,-0.03748513,-0.20644328,0.00597521,0.04571034,0.07855266,-0.08786612,0.07855266,0.15049895,-0.11769859,-0.08786612,-0.11769859,0.33903219,0.01694491,0.00409190,0.08846257,0.69494526,0.00000000,0.00000000,0.00000000,0.61448867,0.00000000,0.00000000,-0.00000000,0.64256796,-3.71165013,0.07176482,-8.73677158,10291009.21005011,0.00000000,0.00000000,0.00000000,7348085.28795838,0.00000000,0.00000000,-0.00000000,9135388.76920938,0.60008575,0.57946586,1.56593688,0.95594991,0.02147520,0.27523904,-0.09970982
2.63889360,0.97774190,-0.03804895,-0.20625228,0.00574898,0.04589980,0.07875709,-0.08786635,0.07875709,0.15060612,-0.11785038,-0.08786634,-0.11785037,0.33918062,0.01436010,0.00091747,0.07492193,0.69494526,0.00000000,0.00000000,0.00000000,0.61448867,0.00000000,0.00000000,-0.00000000,0.64256796,-3.73556376,0.07390541,-8.68900967,10291009.21005011,0.00000000,0.00000000,0.00000000,7348085.28795838,0.00000000,0.00000000,-0.00000000,9135388.76920938,0.60169317,0.58001646,1.56613956,0.95590192,0.02144741,0.27519741,-0.10028913
2.65371370,0.97775245,-0.03857750,-0.20611036,0.00551617,0.04609219,0.07896121,-0.08787641,0.07896121,0.15071659,-0.11801214,-0.08787643,-0.11801215,0.33931052,0.01859026,-0.00167251,0.08087367,0.69494526,0.00000000,0.00000000,0.00000000,0.61448867,0.00000000,0.00000000,-0.00000000,0.64256796,-3.76411724,0.24781796,-8.64584255,10291009.21005011,0.00000000,0.00000000,0.00000000,7348085.28795838,0.00000000,0.00000000,-0.00000000,9135388.76920938,0.60442995,0.58097169,1.56641233,0.95582429,0.02144916,0.27512741,-0.10121648
2.66112362,0.97775674,-0.03889908,-0.20603201,0.00542080,0.04619782,0.07907750,-0.08788638,0.07907748,0.15078397,-0.11810582,-0.08788637,-0.11810580,0.33938536,0.00899467,-0.00125385,0.09762270,0.69494526,0.00000000,0.00000000,0.00000000,0.61448867,0.00000000,0.00000000,-0.00000000,0.64256796,-3.80465412,0.36194530,-8.72926903,10291009.21005011,0.00000000,0.00000000,0.00000000,7348085.28795838,0.00000000,0.00000000,-0.00000000,9135388.76920938,0.60460271,0.58103271,1.56642650,0.95581953,0.02144947,0.27512327,-0.10127257
2.66606365,0.97776127,-0.03915242,-0.20596269,0.00540979,0.04626175,0.07915709,-0.08789635,0.07915709,0.15084151,-0.11816720,-0.08789637,-0.11816719,0.33945365,0.00417995,-0.00078450,0.11168146,0.69494526,0.00000000,0.00000000,0.00000000,0.61448867,0.00000000,0.00000000,-0.00000000,0.64256796,-3.83090091,0.41656092,-8.77217484,10291009.21005011,0.00000000,0.00000000,0.00000000,7348085.28795838,0.00000000,0.00000000,-0.00000000,9135388.76920938,0.60537534,0.58130658,1.56648537,0.95579823,0.02144953,0.27510578,-0.10152077
2.67100368,0.97776634,-0.03945610,-0.20587972,0.00545369,0.04632220,0.07924278,-0.08791180,0.07924278,0.15091607,-0.11822917,-0.08791180,-0.11822917,0.33954113,0.00412695,0.00236347,0.12793619,0.69494526,0.00000000,0.00000000,0.00000000,0.61448867,0.00000000,0.00000000,-0.00000000,0.64256796,-3.84296417,0.44270000,-8.76260471,10291009.21005011,0.00000000,0.00000000,0.00000000,7348085.28795838,0.00000000,0.00000000,-0.00000000,9135388.76920938,0.60621009,0.58160405,1.56654061,0.95577477,0.02144650,0.27508952,-0.10178602
2.67594346,0.97776878,-0.03980260,-0.20579875,0.00555655,0.04637910,0.07933411,-0.08793714,0.07933410,0.15100822,-0.11828926,-0.08793713,-0.11828926,0.33964544,0.00091036,0.00179769,0.14145562,0.69494526,0.00000000,0.00000000,0.00000000,0.61448867,0.00000000,0.00000000,-0.00000000,0.64256796,-3.83580542,0.44516182,-8.72201920,10291009.21005011,0.00000000,0.00000000,0.00000000,7348085.28795838,0.00000000,0.00000000,-0.00000000,9135388.76920938,0.60695088,0.58186923,1.56658221,0.95575308,0.02144036,0.27507832,-0.10202097
2.68088349,0.97776604,-0.04017634,-0.20573549,0.00568643,0.04643990,0.07943691,-0.08797213,0.07943690,0.15112378,-0.11835912,-0.08797212,-0.11835911,0.33975221,0.00141601,0.00021993,0.15010547,0.69494526,0.00000000,0.00000000,0.00000000,0.61448867,0.00000000,0.00000000,-0.00000000,0.64256796,-3.81425142,0.41196817,-8.67669392,10291009.21005011,0.00000000,0.00000000,0.00000000,7348085.28795838,0.00000000,0.00000000,-0.00000000,9135388.76920938,0.60776538,0.58216188,1.56661975,0.95572779,0.02142901,0.27507048,-0.10228108
2.68582352,0.97775823,-0.04056630,-0.20569192,0.00583389,0.04650452,0.07954731,-0.08801589,0.07954732,0.15125131,-0.11843764,-0.08801590,-0.11843766,0.33985832,-0.00068243,-0.00558895,0.15495568,0.69494526,0.00000000,0.00000000,0.00000000,0.61448867,0.00000000,0.00000000,-0.00000000,0.64256796,-3.78323245,0.33592346,-8.64813614,10291009.21005011,0.00000000,0.00000000,0.00000000,7348085.28795838,0.00000000,0.00000000,-0.00000000,9135388.76920938,0.60853635,0.58243972,1.56664735,0.95570226,0.02141392,0.27506741,-0.10253070
2.69076356,0.97774965,-0.04096455,-0.20564972,0.00598020,0.04657217,0.07966285,-0.08806043,0.07966285,0.15138643,-0.11852308,-0.08806041,-0.11852307,0.33996297,0.00196856,-0.00556203,0.15659118,0.69494526,0.00000000,0.00000000,0.00000000,0.61448867,0.00000000,0.00000000,-0.00000000,0.64256796,-3.74033594,0.24568950,-8.64825439,10291009.21005011,0.00000000,0.00000000,0.00000000,7348085.28795838,0.00000000,0.00000000,-0.00000000,9135388.76920938,0.60940528,0.58275343,1.56666945,0.95567204,0.02139390,0.27506702,-0.10281721
2.70558365,0.97773916,-0.04211744,-0.20545645,0.00631942,0.04677787,0.07999977,-0.08816167,0.07999977,0.15176363,-0.11876287,-0.08816168,-0.11876288,0.34027399,0.00885661,-0.00075336,0.14633768,0.69494526,0.00000000,0.00000000,0.00000000,0.61448867,0.00000000,0.00000000,-0.00000000,0.64256796,-3.68542957,0.12216146,-8.73674202,10291009.21005011,0.00000000,0.00000000,0.00000000,7348085.28795838,0.00000000,0.00000000,-0.00000000,9135388.76920938,0.61207932,0.58371844,1.56668084,0.95557433,0.02133482,0.27506344,-0.10374305
2.72040349,0.97774345,-0.04314870,-0.20521832,0.00643161,0.04700336,0.08031777,-0.08821850,0.08031777,0.15206220,-0.11898002,-0.08821850,-0.11898002,0.34054719,0.01683828,0.00091336,0.13229315,0.69494526,0.00000000,0.00000000,0.00000000,0.61448867,0.00000000,0.00000000,-0.00000000,0.64256796,-3.67588520,0.08646300,-8.70574474,10291009.21005011,0.00000000,0.00000000,0.00000000,7348085.28795838,0.00000000,0.00000000,-0.00000000,9135388.76920938,0.61474752,0.58467605,1.56661173,0.95547592,0.02128557,0.27504101,-0.10471456
2.72534352,0.97774744,-0.04346783,-0.20513189,0.00643161,0.04708067,0.08041851,-0.08822983,0.08041852,0.15214493,-0.11904777,-0.08822983,-0.11904778,0.34063166,0.01578617,0.00143040,0.12850315,0.69494526,0.00000000,0.00000000,0.00000000,0.61448867,0.00000000,0.00000000,-0.00000000,0.64256796,-3.65202451,0.11535287,-8.74870682,10291009.21005011,0.00000000,0.00000000,0.00000000,7348085.28795838,0.00000000,0.00000000,-0.00000000,9135388.76920938,0.61501302,0.58477092,1.56660062,0.95546620,0.02128049,0.27503802,-0.10481202
2.73028356,0.97775215,-0.04378259,-0.20504248,0.00643624,0.04715497,0.08051585,-0.08824043,0.08051585,0.15222415,-0.11911366,-0.08824043,-0.11911366,0.34071765,0.01364376,0.00403709,0.12958391,0.69494526,0.00000000,0.00000000,0.00000000,0.61448867,0.00000000,0.00000000,-0.00000000,0.64256796,-3.63052344,0.15614815,-8.78210354,10291009.21005011,0.00000000,0.00000000,0.00000000,7348085.28795838,0.00000000,0.00000000,-0.00000000,9135388.76920938,0.61586200,0.58507370,1.56655990,0.95543502,0.02126325,0.27502901,-0.10512296
2.73522359,0.97775674,-0.04410152,-0.20495206,0.00643856,0.04723107,0.08061569,-0.08825076,0.08061567,0.15230740,-0.11917941,-0.08825076,-0.11917944,0.34080436,0.01630349,0.00301312,0.12850636,0.69494526,0.00000000,0.00000000,0.00000000,0.61448867,0.00000000,0.00000000,-0.00000000,0.64256796,-3.61859298,0.18968578,-8.76536560,10291009.21005011,0.00000000,0.00000000,0.00000000,7348085.28795838,0.00000000,0.00000000,-0.00000000,9135388.76920938,0.61670097,0.58537196,1.56651187,0.95540378,0.02124405,0.27502230,-0.10542791
2.74016362,0.97775954,-0.04442286,-0.20486978,0.00643161,0.04731225,0.08071887,-0.08826278,0.08071887,0.15238988,-0.11924849,-0.08826279,-0.11924851,0.34088769,0.01791802,-0.00117778,0.12904150,0.69494526,0.00000000,0.00000000,0.00000000,0.61448867,0.00000000,0.00000000,-0.00000000,0.64256796,-3.60666251,0.20413069,-8.72954750,10291009.21005011,0.00000000,0.00000000,0.00000000,7348085.28795838,0.00000000,0.00000000,-0.00000000,9135388.76920938,0.61756392,0.58567770,1.56645436,0.95537088,0.02122124,0.27501947,-0.10573753
2.74510365,0.97775978,-0.04475288,-0.20479670,0.00642698,0.04739734,0.08082675,-0.08827850,0.08082676,0.15247676,-0.11932313,-0.08827850,-0.11932310,0.34096952,0.01899170,-0.00537589,0.13227883,0.69494526,0.00000000,0.00000000,0.00000000,0.61448867,0.00000000,0.00000000,-0.00000000,0.64256796,-3.58516121,0.20196746,-8.75582218,10291009.21005011,0.00000000,0.00000000,0.00000000,7348085.28795838,0.00000000,0.00000000,-0.00000000,9135388.76920938,0.61853269,0.58601946,1.56638009,0.95533277,0.02119215,0.27502243,-0.10607945
2.75004368,0.97775900,-0.04507982,-0.20472895,0.00641769,0.04748407,0.08093641,-0.08829475,0.08093640,0.15256594,-0.11940066,-0.08829476,-0.11940067,0.34104831,0.01953947,-0.00694658,0.12957041,0.69494526,0.00000000,0.00000000,0.00000000,0.61448867,0.00000000,0.00000000,-0.00000000,0.64256796,-3.56130028,0.19267191,-8.83940983,10291009.21005011,0.00000000,0.00000000,0.00000000,7348085.28795838,0.00000000,0.00000000,-0.00000000,9135388.76920938,0.61929521,0.58628701,1.56631470,0.95530190,0.02116877,0.27502861,-0.10634575
2.75498346,0.97775882,-0.04540441,-0.20465845,0.00640840,0.04756973,0.08104485,-0.08830992,0.08104485,0.15265456,-0.11947719,-0.08830991,-0.11947719,0.34112765,0.02378525,-0.00690249,0.12958685,0.69494526,0.00000000,0.00000000,0.00000000,0.61448867,0.00000000,0.00000000,-0.00000000,0.64256796,-3.53510642,0.17624658,-8.89435959,10291009.21005011,0.00000000,0.00000000,0.00000000,7348085.28795838,0.00000000,0.00000000,-0.00000000,9135388.76920938,0.62016141,0.58658903,1.56623340,0.95526595,0.02114415,0.27503876,-0.10664695
2.77227344,0.97776252,-0.04647049,-0.20440297,0.00635704,0.04785410,0.08139998,-0.08835228,0.08139999,0.15293421,-0.11972331,-0.08835228,-0.11972333,0.34140047,0.02328424,-0.00690238,0.11875935,0.69494526,0.00000000,0.00000000,0.00000000,0.61448867,0.00000000,0.00000000,-0.00000000,0.64256796,-3.50644732,0.18131833,-8.85139465,10291009.21005011,0.00000000,0.00000000,0.00000000,7348085.28795838,0.00000000,0.00000000,-0.00000000,9135388.76920938,0.62396044,0.58788207,1.56579930,0.95509832,0.02111400,0.27509908,-0.10799022
2.78709354,0.97775036,-0.04740464,-0.20424633,0.00635938,0.04810508,0.08171761,-0.08841325,0.08171760,0.15319763,-0.11995367,-0.08841324,-0.11995368,0.34163111,0.01057484,-0.01440135,0.13061116,0.69494526,0.00000000,0.00000000,0.00000000,0.61448867,0.00000000,0.00000000,-0.00000000,0.64256796,-3.49213076,0.38910183,-8.96102905,10291009.21005011,0.00000000,0.00000000,0.00000000,7348085.28795838,0.00000000,0.00000000,-0.00000000,9135388.76920938,0.62650376,0.58871201,1.56545173,0.95498250,0.02120807,0.27512449,-0.10892730
2.79203357,0.97774285,-0.04776756,-0.20419587,0.00641073,0.04819014,0.08183478,-0.08844380,0.08183478,0.15330900,-0.12003958,-0.08844378,-0.12003961,0.34172292,0.00945101,-0.01389746,0.15117464,0.69494526,0.00000000,0.00000000,0.00000000,0.61448867,0.00000000,0.00000000,-0.00000000,0.64256796,-3.50406098,0.47012043,-8.99198151,10291009.21005011,0.00000000,0.00000000,0.00000000,7348085.28795838,0.00000000,0.00000000,-0.00000000,9135388.76920938,0.62675329,0.58879162,1.56541561,0.95497118,0.02122141,0.27512596,-0.10902019
2.79697360,0.97773045,-0.04816846,-0.20415847,0.00650533,0.04827683,0.08196031,-0.08848631,0.08196031,0.15343459,-0.12013059,-0.08848630,-0.12013058,0.34182591,-0.00060733,-0.02189596,0.16574302,0.69494526,0.00000000,0.00000000,0.00000000,0.61448867,0.00000000,0.00000000,-0.00000000,0.64256796,-3.49934196,0.55847913,-9.00145531,10291009.21005011,0.00000000,0.00000000,0.00000000,7348085.28795838,0.00000000,0.00000000,-0.00000000,9135388.76920938,0.62781238,0.58912556,1.56525856,0.95492254,0.02128075,0.27513281,-0.10941667
2.80191364,0.97771108,-0.04860913,-0.20414259,0.00664134,0.04836799,0.08210009,-0.08854268,0.08210010,0.15358773,-0.12023677,-0.08854270,-0.12023678,0.34193469,-0.00805877,-0.02513659,0.18303221,0.69494526,0.00000000,0.00000000,0.00000000,0.61448867,0.00000000,0.00000000,-0.00000000,0.64256796,-3.47070885,0.64469731,-9.00139046,10291009.21005011,0.00000000,0.00000000,0.00000000,7348085.28795838,0.00000000,0.00000000,-0.00000000,9135388.76920938,0.62884973,0.58944623,1.56509898,0.95487333,0.02133841,0.27514285,-0.10980893
2.80685367,0.97768360,-0.04910217,-0.20415039,0.00681410,0.04846927,0.08225898,-0.08861452,0.08225897,0.15376925,-0.12036013,-0.08861453,-0.12036012,0.34204997,-0.01231402,-0.03202710,0.20357051,0.69494526,0.00000000,0.00000000,0.00000000,0.61448867,0.00000000,0.00000000,-0.00000000,0.64256796,-3.42778587,0.70481586,-9.00136185,10291009.21005011,0.00000000,0.00000000,0.00000000,7348085.28795838,0.00000000,0.00000000,-0.00000000,9135388.76920938,0.62985490,0.58975059,1.56493910,0.95482344,0.02138838,0.27515846,-0.11019330
2.81179370,0.97764987,-0.04964301,-0.20417434,0.00701241,0.04858102,0.08243665,-0.08869790,0.08243665,0.15397788,-0.12050141,-0.08869790,-0.12050141,0.34217035,-0.01712008,-0.03629433,0.22465286,0.69494526,0.00000000,0.00000000,0.00000000,0.61448867,0.00000000,0.00000000,-0.00000000,0.64256796,-3.39438081,0.73380601,-8.99896717,10291009.21005011,0.00000000,0.00000000,0.00000000,7348085.28795838,0.00000000,0.00000000,-0.00000000,9135388.76920938,0.63093916,0.59007149,1.56476103,0.95476645,0.02143046,0.27518412,-0.11061404
2.81673347,0.97760868,-0.05022745,-0.20422101,0.00722590,0.04870657,0.08263386,-0.08879366,0.08263386,0.15420915,-0.12066058,-0.08879366,-0.12066057,0.34229277,-0.01765718,-0.04472358,0.24085698,0.69494526,0.00000000,0.00000000,0.00000000,0.61448867,0.00000000,0.00000000,-0.00000000,0.64256796,-3.38473058,0.75776255,-8.98461533,10291009.21005011,0.00000000,0.00000000,0.00000000,7348085.28795838,0.00000000,0.00000000,-0.00000000,9135388.76920938,0.63201005,0.59038052,1.56457961,0.95470625,0.02145509,0.27522046,-0.11103760
2.82167351,0.97756255,-0.05084796,-0.20428017,0.00745529,0.04884138,0.08284585,-0.08889812,0.08284586,0.15445930,-0.12083515,-0.08889811,-0.12083516,0.34241834,-0.02352180,-0.04794849,0.25923297,0.69494526,0.00000000,0.00000000,0.00000000,0.61448867,0.00000000,0.00000000,-0.00000000,0.64256796,-3.37757230,0.77693045,-8.97982693,10291009.21005011,0.00000000,0.00000000,0.00000000,7348085.28795838,0.00000000,0.00000000,-0.00000000,9135388.76920938,0.63308801,0.59068330,1.56439159,0.95464108,0.02145827,0.27526998,-0.11147373
2.83649360,0.97739547,-0.05289942,-0.20452912,0.00821779,0.04930001,0.08356403,-0.08925921,0.08356403,0.15531318,-0.12143153,-0.08925923,-0.12143153,0.34281667,-0.02616661,-0.06376881,0.29165952,0.69494526,0.00000000,0.00000000,0.00000000,0.61448867,0.00000000,0.00000000,-0.00000000,0.64256796,-3.37282658,0.72447813,-8.99181843,10291009.21005011,0.00000000,0.00000000,0.00000000,7348085.28795838,0.00000000,0.00000000,-0.00000000,9135388.76920938,0.63728398,0.59177688,1.56361582,0.95433763,0.02127306,0.27559448,-0.11329086
2.85378359,0.97717744,-0.05538536,-0.20487715,0.00905956,0.04989726,0.08447371,-0.08970404,0.08447372,0.15637874,-0.12219704,-0.08970403,-0.12219703,0.34327556,-0.01923013,-0.06526902,0.27922765,0.69494526,0.00000000,0.00000000,0.00000000,0.61448867,0.00000000,0.00000000,-0.00000000,0.64256796,-3.34419370,0.55533147,-9.05168724,10291009.21005011,0.00000000,0.00000000,0.00000000,7348085.28795838,0.00000000,0.00000000,-0.00000000,9135388.76920938,0.64072008,0.59256578,1.56294871,0.95403253,0.02104050,0.27598436,-0.11494285
2.85625347,0.97714752,-0.05571798,-0.20492500,0.00916259,0.04998107,0.08459857,-0.08976346,0.08459856,0.15652262,-0.12230126,-0.08976345,-0.12230126,0.34333728,-0.01760763,-0.06735239,0.27164796,0.69494526,0.00000000,0.00000000,0.00000000,0.61448867,0.00000000,0.00000000,-0.00000000,0.64256796,-3.34893942,0.53857279,-9.03737354,10291009.21005011,0.00000000,0.00000000,0.00000000,7348085.28795838,0.00000000,0.00000000,-0.00000000,9135388.76920938,0.64115775,0.59265940,1.56286277,0.95399075,0.02100980,0.27603988,-0.11516168
2.86366365,0.97705919,-0.05666929,-0.20507388,0.00941446,0.05023689,0.08496816,-0.08993250,0.08496816,0.15693862,-0.12261225,-0.08993250,-0.12261226,0.34350368,0.00103709,-0.07135651,0.24841866,0.69494526,0.00000000,0.00000000,0.00000000,0.61448867,0.00000000,0.00000000,-0.00000000,0.64256796,-3.41097736,0.51644140,-8.99438095,10291009.21005011,0.00000000,0.00000000,0.00000000,7348085.28795838,0.00000000,0.00000000,-0.00000000,9135388.76920938,0.64235093,0.59290699,1.56262803,0.95387439,0.02092414,0.27619644,-0.11576418
2.86860368,0.97700351,-0.05725241,-0.20517126,0.00954337,0.05040341,0.08520113,-0.09003585,0.08520113,0.15719074,-0.12281143,-0.09003585,-0.12281143,0.34360161,0.00267270,-0.06922622,0.22948906,0.69494526,0.00000000,0.00000000,0.00000000,0.61448867,0.00000000,0.00000000,-0.00000000,0.64256796,-3.45395374,0.53747159,-9.03492355,10291009.21005011,0.00000000,0.00000000,0.00000000,7348085.28795838,0.00000000,0.00000000,-0.00000000,9135388.76920938,0.64359475,0.59315339,1.56238319,0.95374998,0.02083122,0.27636650,-0.11639840
2.87354346,0.97695309,-0.05780168,-0.20525186,0.00965359,0.05056184,0.08542121,-0.09012912,0.08542122,0.15742756,-0.12299829,-0.09012912,-0.12299827,0.34369681,0.00957000,-0.06441607,0.21707300,0.69494526,0.00000000,0.00000000,0.00000000,0.61448867,0.00000000,0.00000000,-0.00000000,0.64256796,-3.50406098,0.58467662,-9.10169697,10291009.21005011,0.00000000,0.00000000,0.00000000,7348085.28795838,0.00000000,0.00000000,-0.00000000,9135388.76920938,0.64483699,0.59338796,1.56213901,0.95362345,0.02073510,0.27654188,-0.11703401
2.87848349,0.97690415,-0.05832688,-0.20533159,0.00975647,0.05071525,0.08563251,-0.09021936,0.08563251,0.15765254,-0.12317671,-0.09021936,-0.12317669,0.34378976,0.01383931,-0.06436677,0.20517435,0.69494526,0.00000000,0.00000000,0.00000000,0.61448867,0.00000000,0.00000000,-0.00000000,0.64256796,-3.56604600,0.65561724,-9.13023567,10291009.21005011,0.00000000,0.00000000,0.00000000,7348085.28795838,0.00000000,0.00000000,-0.00000000,9135388.76920938,0.64608905,0.59361325,1.56189357,0.95349451,0.02063623,0.27672287,-0.11767254
2.88342352,0.97685903,-0.05882725,-0.20539932,0.00984465,0.05086307,0.08583419,-0.09030218,0.08583420,0.15786414,-0.12334711,-0.09030218,-0.12334713,0.34388022,0.01754696,-0.05906454,0.19491543,0.69494526,0.00000000,0.00000000,0.00000000,0.61448867,0.00000000,0.00000000,-0.00000000,0.64256796,-3.64955902,0.75258929,-9.09666634,10291009.21005011,0.00000000,0.00000000,0.00000000,7348085.28795838,0.00000000,0.00000000,-0.00000000,9135388.76920938,0.64737218,0.59383305,1.56164307,0.95336177,0.02053423,0.27691144,-0.11832045
2.88836356,0.97681522,-0.05931612,-0.20546345,0.00992004,0.05101069,0.08603359,-0.09038126,0.08603358,0.15807239,-0.12351393,-0.09038127,-0.12351395,0.34396811,0.02655447,-0.05476112,0.18791816,0.69494526,0.00000000,0.00000000,0.00000000,0.61448867,0.00000000,0.00000000,-0.00000000,0.64256796,-3.74741459,0.85418659,-9.04876137,10291009.21005011,0.00000000,0.00000000,0.00000000,7348085.28795838,0.00000000,0.00000000,-0.00000000,9135388.76920938,0.64866973,0.59404436,1.56139115,0.95322784,0.02043177,0.27710400,-0.11896472
2.90318365,0.97668338,-0.06075595,-0.20565914,0.01013110,0.05145286,0.08662333,-0.09061591,0.08662332,0.15867812,-0.12400383,-0.09061591,-0.12400380,0.34422968,0.03768760,-0.04938245,0.17876924,0.69494526,0.00000000,0.00000000,0.00000000,0.61448867,0.00000000,0.00000000,-0.00000000,0.64256796,-3.93360853,0.97872633,-8.93393326,10291009.21005011,0.00000000,0.00000000,0.00000000,7348085.28795838,0.00000000,0.00000000,-0.00000000,9135388.76920938,0.65337504,0.59472312,1.56049646,0.95276687,0.02012444,0.27776288,-0.12115312
2.91800349,0.97655463,-0.06207417,-0.20587455,0.01017513,0.05191431,0.08720604,-0.09082337,0.08720605,0.15924371,-0.12449178,-0.09082336,-0.12449177,0.34443466,0.06952344,-0.03852010,0.14262120,0.69494526,0.00000000,0.00000000,0.00000000,0.61448867,0.00000000,0.00000000,-0.00000000,0.64256796,-4.03854275,0.90363383,-8.81217194,10291009.21005011,0.00000000,0.00000000,0.00000000,7348085.28795838,0.00000000,0.00000000,-0.00000000,9135388.76920938,0.65739709,0.59519825,1.55976964,0.95244214,0.02006324,0.27816690,-0.12277871
2.92294352,0.97651750,-0.06245385,-0.20593736,0.01014580,0.05206108,0.08738193,-0.09087892,0.08738193,0.15940087,-0.12464011,-0.09087892,-0.12464012,0.34448876,0.07270571,-0.03216952,0.12857511,0.69494526,0.00000000,0.00000000,0.00000000,0.61448867,0.00000000,0.00000000,-0.00000000,0.64256796,-4.06717539,0.89378649,-8.78112602,10291009.21005011,0.00000000,0.00000000,0.00000000,7348085.28795838,0.00000000,0.00000000,-0.00000000,9135388.76920938,0.65773554,0.59523385,1.55971061,0.95241839,0.02006938,0.27819215,-0.12290471
2.92788356,0.97648096,-0.06280609,-0.20600641,0.01008392,0.05221066,0.08755554,-0.09092932,0.08755555,0.15955226,-0.12478614,-0.09092932,-0.12478613,0.34453049,0.08810134,-0.03042761,0.11563167,0.69494526,0.00000000,0.00000000,0.00000000,0.61448867,0.00000000,0.00000000,-0.00000000,0.64256796,-4.09101009,0.90785277,-8.74050808,10291009.21005011,0.00000000,0.00000000,0.00000000,7348085.28795838,0.00000000,0.00000000,-0.00000000,9135388.76920938,0.65900933,0.59536176,1.55949187,0.95233423,0.02010996,0.27827400,-0.12336405
2.93282359,0.97644490,-0.06312959,-0.20608275,0.00999487,0.05236123,0.08772263,-0.09097594,0.08772263,0.15968592,-0.12492958,-0.09097594,-0.12492958,0.34456075,0.09290970,-0.03089814,0.10373766,0.69494526,0.00000000,0.00000000,0.00000000,0.61448867,0.00000000,0.00000000,-0.00000000,0.64256796,-4.09578228,0.92212212,-8.70467949,10291009.21005011,0.00000000,0.00000000,0.00000000,7348085.28795838,0.00000000,0.00000000,-0.00000000,9135388.76920938,0.66028718,0.59548039,1.55927801,0.95225780,0.02017840,0.27833644,-0.12380124
2.93776362,0.97640914,-0.06342936,-0.20616598,0.00987488,0.05251553,0.08788815,-0.09101818,0.08788816,0.15981213,-0.12507415,-0.09101819,-0.12507417,0.34457845,0.10302094,-0.03131399,0.09186082,0.69494526,0.00000000,0.00000000,0.00000000,0.61448867,0.00000000,0.00000000,-0.00000000,0.64256796,-4.07194757,0.92953515,-8.68081379,10291009.21005011,0.00000000,0.00000000,0.00000000,7348085.28795838,0.00000000,0.00000000,-0.00000000,9135388.76920938,0.66162992,0.59559467,1.55905919,0.95218489,0.02027821,0.27838538,-0.12423487
2.94270365,0.97637433,-0.06370433,-0.20625347,0.00972281,0.05267292,0.08805045,-0.09105501,0.08805044,0.15992722,-0.12521780,-0.09105502,-0.12521782,0.34458406,0.11260584,-0.03278732,0.07997762,0.69494526,0.00000000,0.00000000,0.00000000,0.61448867,0.00000000,0.00000000,-0.00000000,0.64256796,-4.03138447,0.94428110,-8.67366219,10291009.21005011,0.00000000,0.00000000,0.00000000,7348085.28795838,0.00000000,0.00000000,-0.00000000,9135388.76920938,0.66295934,0.59569737,1.55884834,0.95211887,0.02040297,0.27842194,-0.12463786
2.94764368,0.97634035,-0.06395634,-0.20634396,0.00954649,0.05283157,0.08820795,-0.09108751,0.08820796,0.16002926,-0.12536014,-0.09108753,-0.12536019,0.34457994,0.11687931,-0.03273771,0.06862462,0.69494526,0.00000000,0.00000000,0.00000000,0.61448867,0.00000000,0.00000000,-0.00000000,0.64256796,-3.98366308,0.94955587,-8.68801117,10291009.21005011,0.00000000,0.00000000,0.00000000,7348085.28795838,0.00000000,0.00000000,-0.00000000,9135388.76920938,0.66416131,0.59578131,1.55866258,0.95206336,0.02053617,0.27844892,-0.12497929
2.95258346,0.97630733,-0.06418670,-0.20643818,0.00934456,0.05299235,0.08836264,-0.09111545,0.08836263,0.16012469,-0.12549976,-0.09111544,-0.12549977,0.34456629,0.13072487,-0.03784945,0.05945456,0.69494526,0.00000000,0.00000000,0.00000000,0.61448867,0.00000000,0.00000000,-0.00000000,0.64256796,-3.93599463,0.94528919,-8.69282532,10291009.21005011,0.00000000,0.00000000,0.00000000,7348085.28795838,0.00000000,0.00000000,-0.00000000,9135388.76920938,0.66551953,0.59586593,1.55845809,0.95200426,0.02070843,0.27847673,-0.12533856
2.97481347,0.97613341,-0.06504171,-0.20704676,0.00804924,0.05382636,0.08909207,-0.09122468,0.08909206,0.16047985,-0.12619669,-0.09122468,-0.12619671,0.34433420,0.16870157,-0.07477887,0.02050145,0.69494526,0.00000000,0.00000000,0.00000000,0.61448867,0.00000000,0.00000000,-0.00000000,0.64256796,-3.71170306,0.87127614,-8.83389854,10291009.21005011,0.00000000,0.00000000,0.00000000,7348085.28795838,0.00000000,0.00000000,-0.00000000,9135388.76920938,0.67077829,0.59608824,1.55771695,0.95179459,0.02158576,0.27861873,-0.12646229
2.98963357,0.97599405,-0.06543310,-0.20761915,0.00695694,0.05444308,0.08958494,-0.09129609,0.08958494,0.16067338,-0.12671404,-0.09129609,-0.12671406,0.34404614,0.18635425,-0.09457506,0.00642752,0.69494526,0.00000000,0.00000000,0.00000000,0.61448867,0.00000000,0.00000000,-0.00000000,0.64256796,-3.61146116,0.85562110,-9.12763691,10291009.21005011,0.00000000,0.00000000,0.00000000,7348085.28795838,0.00000000,0.00000000,-0.00000000,9135388.76920938,0.67448963,0.59613877,1.55724313,0.95164817,0.02241359,0.27880100,-0.12701730
2.99457360,0.97594637,-0.06556267,-0.20781480,0.00657595,0.05465687,0.08975166,-0.09131834,0.08975167,0.16073433,-0.12689098,-0.09131834,-0.12689097,0.34394401,0.18533343,-0.10089630,0.00640870,0.69494526,0.00000000,0.00000000,0.00000000,0.61448867,0.00000000,0.00000000,-0.00000000,0.64256796,-3.62577772,0.88172311,-9.21355343,10291009.21005011,0.00000000,0.00000000,0.00000000,7348085.28795838,0.00000000,0.00000000,-0.00000000,9135388.76920938,0.67577701,0.59613436,1.55708983,0.95159572,0.02274580,0.27888227,-0.12717270
2.99951364,0.97589481,-0.06570933,-0.20802189,0.00620040,0.05487830,0.08992601,-0.09134584,0.08992599,0.16080325,-0.12707561,-0.09134584,-0.12707562,0.34384206,0.18005696,-0.10936974,0.01611404,0.69494526,0.00000000,0.00000000,0.00000000,0.61448867,0.00000000,0.00000000,-0.00000000,0.64256796,-3.64486599,0.89345539,-9.28038025,10291009.21005011,0.00000000,0.00000000,0.00000000,7348085.28795838,0.00000000,0.00000000,-0.00000000,9135388.76920938,0.67701919,0.59611910,1.55694777,0.95154379,0.02308728,0.27896971,-0.12730786
3.00445367,0.97584045,-0.06587116,-0.20823610,0.00583899,0.05510294,0.09010702,-0.09137796,0.09010701,0.16088505,-0.12726831,-0.09137797,-0.12726834,0.34374201,0.17686643,-0.11150992,0.02313301,0.69494526,0.00000000,0.00000000,0.00000000,0.61448867,0.00000000,0.00000000,-0.00000000,0.64256796,-3.64722610,0.88388145,-9.31381035,10291009.21005011,0.00000000,0.00000000,0.00000000,7348085.28795838,0.00000000,0.00000000,-0.00000000,9135388.76920938,0.67830542,0.59609182,1.55680694,0.95148834,0.02345978,0.27906976,-0.12743486
3.00939344,0.97578460,-0.06605233,-0.20845009,0.00548094,0.05533407,0.09029510,-0.09141167,0.09029510,0.16097474,-0.12746531,-0.09141167,-0.12746531,0.34364556,0.17474705,-0.11574325,0.03177549,0.69494526,0.00000000,0.00000000,0.00000000,0.61448867,0.00000000,0.00000000,-0.00000000,0.64256796,-3.64245367,0.85290611,-9.37353134,10291009.21005011,0.00000000,0.00000000,0.00000000,7348085.28795838,0.00000000,0.00000000,-0.00000000,9135388.76920938,0.67957695,0.59605328,1.55667421,0.95143153,0.02384414,0.27917835,-0.12754979
3.01433347,0.97572762,-0.06625472,-0.20866176,0.00511823,0.05557462,0.09049296,-0.09144520,0.09049295,0.16107446,-0.12767043,-0.09144519,-0.12767044,0.34355043,0.17790889,-0.11571440,0.03990676,0.69494526,0.00000000,0.00000000,0.00000000,0.61448867,0.00000000,0.00000000,-0.00000000,0.64256796,-3.64250708,0.81233895,-9.46430111,10291009.21005011,0.00000000,0.00000000,0.00000000,7348085.28795838,0.00000000,0.00000000,-0.00000000,9135388.76920938,0.68089833,0.59600103,1.55654328,0.95137010,0.02425736,0.27930146,-0.12766053
3.01927351,0.97566968,-0.06646681,-0.20887326,0.00477168,0.05581417,0.09069063,-0.09148148,0.09069063,0.16117441,-0.12787447,-0.09148147,-0.12787447,0.34346139,0.16890251,-0.11896490,0.04528532,0.69494526,0.00000000,0.00000000,0.00000000,0.61448867,0.00000000,0.00000000,-0.00000000,0.64256796,-3.64012074,0.75508595,-9.54792023,10291009.21005011,0.00000000,0.00000000,0.00000000,7348085.28795838,0.00000000,0.00000000,-0.00000000,9135388.76920938,0.68215972,0.59593962,1.55642488,0.95130907,0.02466073,0.27942839,-0.12776026
3.02421354,0.97561234,-0.06669107,-0.20907705,0.00443503,0.05605402,0.09089134,-0.09151725,0.09089134,0.16128339,-0.12808062,-0.09151724,-0.12808062,0.34337741,0.16621092,-0.11584071,0.05177779,0.69494526,0.00000000,0.00000000,0.00000000,0.61448867,0.00000000,0.00000000,-0.00000000,0.64256796,-3.63532162,0.70740193,-9.60765457,10291009.21005011,0.00000000,0.00000000,0.00000000,7348085.28795838,0.00000000,0.00000000,-0.00000000,9135388.76920938,0.68385883,0.59583941,1.55627530,0.95122310,0.02521001,0.27961299,-0.12788921
3.03903364,0.97545904,-0.06739133,-0.20958637,0.00341797,0.05676919,0.09148291,-0.09159373,0.09148292,0.16159604,-0.12867085,-0.09159373,-0.12867083,0.34315726,0.16554521,-0.09481273,0.05453723,0.69494526,0.00000000,0.00000000,0.00000000,0.61448867,0.00000000,0.00000000,-0.00000000,0.64256796,-3.66159534,0.64269066,-9.61725235,10291009.21005011,0.00000000,0.00000000,0.00000000,7348085.28795838,0.00000000,0.00000000,-0.00000000,9135388.76920938,0.68771794,0.59553965,1.55597636,0.95101230,0.02643626,0.28008159,-0.12818362
3.05385347,0.97533727,-0.06811710,-0.20993212,0.00240451,0.05746526,0.09204321,-0.09162290,0.09204321,0.16186952,-0.12919963,-0.09162289,-0.12919961,0.34299308,0.16805937,-0.07480533,0.06055237,0.69494526,0.00000000,0.00000000,0.00000000,0.61448867,0.00000000,0.00000000,-0.00000000,0.64256796,-3.79526854,0.72482133,-9.42132092,10291009.21005011,0.00000000,0.00000000,0.00000000,7348085.28795838,0.00000000,0.00000000,-0.00000000,9135388.76920938,0.69160459,0.59514321,1.55573408,0.95078726,0.02760794,0.28057880,-0.12851817
3.05879351,0.97530305,-0.06838008,-0.21000929,0.00205717,0.05770170,0.09223214,-0.09162095,0.09223214,0.16196173,-0.12936796,-0.09162095,-0.12936796,0.34295076,0.17064941,-0.06794513,0.06653006,0.69494526,0.00000000,0.00000000,0.00000000,0.61448867,0.00000000,0.00000000,-0.00000000,0.64256796,-3.81435728,0.74848652,-9.39502335,10291009.21005011,0.00000000,0.00000000,0.00000000,7348085.28795838,0.00000000,0.00000000,-0.00000000,9135388.76920938,0.69283826,0.59499927,1.55566999,0.95071541,0.02796601,0.28073203,-0.12863760
3.06620368,0.97525543,-0.06878616,-0.21010184,0.00158221,0.05804124,0.09250390,-0.09161924,0.09250390,0.16208931,-0.12960650,-0.09161924,-0.12960648,0.34290827,0.16792456,-0.06008820,0.07140414,0.69494526,0.00000000,0.00000000,0.00000000,0.61448867,0.00000000,0.00000000,-0.00000000,0.64256796,-3.82618189,0.70300633,-9.32103634,10291009.21005011,0.00000000,0.00000000,0.00000000,7348085.28795838,0.00000000,0.00000000,-0.00000000,9135388.76920938,0.69422305,0.59482820,1.55560552,0.95063518,0.02836275,0.28089854,-0.12878008
3.07114346,0.97522473,-0.06906915,-0.21015371,0.00126859,0.05827007,0.09268758,-0.09161613,0.09268758,0.16217717,-0.12976479,-0.09161614,-0.12976476,0.34288517,0.16682236,-0.05484218,0.07466148,0.69494526,0.00000000,0.00000000,0.00000000,0.61448867,0.00000000,0.00000000,-0.00000000,0.64256796,-3.82856798,0.63138360,-9.27335262,10291009.21005011,0.00000000,0.00000000,0.00000000,7348085.28795838,0.00000000,0.00000000,-0.00000000,9135388.76920938,0.69557533,0.59465205,1.55555021,0.95055759,0.02874712,0.28105417,-0.12892800
3.07608349,0.97519594,-0.06934980,-0.21019647,0.00096118,0.05849492,0.09286735,-0.09161086,0.09286735,0.16226229,-0.12991719,-0.09161086,-0.12991720,0.34286664,0.16468138,-0.05118230,0.07303893,0.69494526,0.00000000,0.00000000,0.00000000,0.61448867,0.00000000,0.00000000,-0.00000000,0.64256796,-3.79752207,0.55294997,-9.27822018,10291009.21005011,0.00000000,0.00000000,0.00000000,7348085.28795838,0.00000000,0.00000000,-0.00000000,9135388.76920938,0.69958048,0.59408356,1.55543043,0.95033486,0.02988794,0.28146292,-0.12941786
3.08102352,0.97517061,-0.06962065,-0.21022557,0.00064594,0.05871700,0.09304350,-0.09159898,0.09304350,0.16234726,-0.13006432,-0.09159898,-0.13006436,0.34284842,0.15827556,-0.04335898,0.07195841,0.69494526,0.00000000,0.00000000,0.00000000,0.61448867,0.00000000,0.00000000,-0.00000000,0.64256796,-3.74980068,0.48185402,-9.32368088,10291009.21005011,0.00000000,0.00000000,0.00000000,7348085.28795838,0.00000000,0.00000000,-0.00000000,9135388.76920938,0.69959270,0.59408172,1.55543016,0.95033421,0.02989146,0.28146403,-0.12941947
3.08596356,0.97514945,-0.06988267,-0.21023755,0.00034527,0.05892779,0.09320834,-0.09158379,0.09320835,0.16242128,-0.13019778,-0.09158380,-0.13019776,0.34283883,0.15297168,-0.04078195,0.06870515,0.69494526,0.00000000,0.00000000,0.00000000,0.61448867,0.00000000,0.00000000,-0.00000000,0.64256796,-3.71642232,0.43447578,-9.34523678,10291009.21005011,0.00000000,0.00000000,0.00000000,7348085.28795838,0.00000000,0.00000000,-0.00000000,9135388.76920938,0.69987620,0.59403910,1.55542416,0.95031896,0.02997319,0.28148951,-0.12945710
3.09090359,0.97513235,-0.07013766,-0.21023202,0.00000000,0.05914944,0.09338046,-0.09155472,0.09338046,0.16250775,-0.13033192,-0.09155472,-0.13033193,0.34282148,0.14868405,-0.03135783,0.06492862,0.69494526,0.00000000,0.00000000,0.00000000,0.61448867,0.00000000,0.00000000,-0.00000000,0.64256796,-3.70210576,0.40598729,-9.29990959,10291009.21005011,0.00000000,0.00000000,0.00000000,7348085.28795838,0.00000000,0.00000000,-0.00000000,9135388.76920938,0.70147923,0.59379286,1.55539596,0.95023440,0.03043648,0.28162469,-0.12967555
3.10572368,-0.97508591,0.07081004,0.21022096,0.00073242,0.05967556,0.09377879,-0.09151392,0.09377879,0.16265230,-0.13065084,-0.09151393,-0.13065085,0.34283648,0.13762052,-0.03514458,0.04810669,0.69494526,0.00000000,0.00000000,0.00000000,0.61448867,0.00000000,0.00000000,-0.00000000,0.64256796,-3.66387558,0.32046664,-9.22838593,10291009.21005011,0.00000000,0.00000000,0.00000000,7348085.28795838,0.00000000,0.00000000,-0.00000000,9135388.76920938,0.70670707,0.59293799,1.55536219,0.94998367,0.03188874,0.28197371,-0.13040306
3.12054352,-0.97507447,0.07130118,0.21010368,0.00154408,0.06014668,0.09409994,-0.09141535,0.09409996,0.16272721,-0.13089460,-0.09141534,-0.13089461,0.34283717,0.12856828,-0.01681939,0.02757121,0.69494526,0.00000000,0.00000000,0.00000000,0.61448867,0.00000000,0.00000000,-0.00000000,0.64256796,-3.61387396,0.26611155,-9.26906586,10291009.21005011,0.00000000,0.00000000,0.00000000,7348085.28795838,0.00000000,0.00000000,-0.00000000,9135388.76920938,0.71134363,0.59212962,1.55538836,0.94979808,0.03303828,0.28219354,-0.13099194
3.12548356,-0.97507489,0.07143481,0.21005403,0.00182698,0.06029619,0.09419260,-0.09137557,0.09419260,0.16273382,-0.13095931,-0.09137559,-0.13095930,0.34283561,0.12754633,-0.02208747,0.02376225,0.69494526,0.00000000,0.00000000,0.00000000,0.61448867,0.00000000,0.00000000,-0.00000000,0.64256796,-3.60904884,0.26854348,-9.18072414,10291009.21005011,0.00000000,0.00000000,0.00000000,7348085.28795838,0.00000000,0.00000000,-0.00000000,9135388.76920938,0.71212451,0.59198993,1.55539675,0.94977047,0.03321795,0.28222343,-0.13108229
3.14030365,-0.97508013,0.07176156,0.20990983,0.00261812,0.06069983,0.09443148,-0.09126096,0.09443150,0.16273143,-0.13113491,-0.09126096,-0.13113490,0.34283028,0.10739321,-0.01597841,0.01289305,0.69494526,0.00000000,0.00000000,0.00000000,0.61448867,0.00000000,0.00000000,-0.00000000,0.64256796,-3.60660982,0.24469785,-9.20461845,10291009.21005011,0.00000000,0.00000000,0.00000000,7348085.28795838,0.00000000,0.00000000,-0.00000000,9135388.76920938,0.71779550,0.59095197,1.55548499,0.94960239,0.03443191,0.28237408,-0.13166104
3.14524368,-0.97508693,0.07185578,0.20984310,0.00284714,0.06081228,0.09449407,-0.09122201,0.09449406,0.16272115,-0.13117696,-0.09122203,-0.13117696,0.34284101,0.10419467,-0.01338254,0.01560108,0.69494526,0.00000000,0.00000000,0.00000000,0.61448867,0.00000000,0.00000000,-0.00000000,0.64256796,-3.60189056,0.28532484,-9.22846222,10291009.21005011,0.00000000,0.00000000,0.00000000,7348085.28795838,0.00000000,0.00000000,-0.00000000,9135388.76920938,0.71861137,0.59079980,1.55550093,0.94958272,0.03459528,0.28238648,-0.13173347
3.15018346,-0.97509420,0.07195608,0.20977178,0.00306880,0.06092351,0.09455786,-0.09118308,0.09455785,0.16271576,-0.13121787,-0.09118307,-0.13121786,0.34285615,0.09622041,-0.01136265,0.01937226,0.69494526,0.00000000,0.00000000,0.00000000,0.61448867,0.00000000,0.00000000,-0.00000000,0.64256796,-3.61859298,0.32094806,-9.17589283,10291009.21005011,0.00000000,0.00000000,0.00000000,7348085.28795838,0.00000000,0.00000000,-0.00000000,9135388.76920938,0.72031916,0.59047931,1.55553608,0.94954456,0.03492795,0.28240674,-0.13187719
3.15759364,-0.97509986,0.07213344,0.20968023,0.00335194,0.06108542,0.09465880,-0.09113851,0.09465880,0.16272238,-0.13128196,-0.09113851,-0.13128195,0.34289185,0.08881658,-0.01985874,0.02960834,0.69494526,0.00000000,0.00000000,0.00000000,0.61448867,0.00000000,0.00000000,-0.00000000,0.64256796,-3.67580605,0.36329976,-8.98242283,10291009.21005011,0.00000000,0.00000000,0.00000000,7348085.28795838,0.00000000,0.00000000,-0.00000000,9135388.76920938,0.72215719,0.59013165,1.55557594,0.94950744,0.03527135,0.28242177,-0.13202082
3.17241347,-0.97509772,0.07256554,0.20953408,0.00376642,0.06138920,0.09488261,-0.09108670,0.09488262,0.16280338,-0.13143649,-0.09108670,-0.13143650,0.34299703,0.06278167,-0.01697861,0.04686552,0.69494526,0.00000000,0.00000000,0.00000000,0.61448867,0.00000000,0.00000000,-0.00000000,0.64256796,-3.64722610,0.36121902,-8.99199772,10291009.21005011,0.00000000,0.00000000,0.00000000,7348085.28795838,0.00000000,0.00000000,-0.00000000,9135388.76920938,0.72844611,0.58892323,1.55571439,0.94940062,0.03631881,0.28244918,-0.13244568
3.18723357,-0.97508901,0.07307506,0.20939265,0.00400792,0.06165696,0.09511579,-0.09106703,0.09511579,0.16294062,-0.13159050,-0.09106703,-0.13159051,0.34315636,0.04634379,-0.02030752,0.05709608,0.69494526,0.00000000,0.00000000,0.00000000,0.61448867,0.00000000,0.00000000,-0.00000000,0.64256796,-3.72837901,0.33650276,-8.86304855,10291009.21005011,0.00000000,0.00000000,0.00000000,7348085.28795838,0.00000000,0.00000000,-0.00000000,9135388.76920938,0.73380719,0.58787171,1.55581077,0.94931818,0.03703421,0.28248293,-0.13276619
3.19217360,-0.97508794,0.07323710,0.20934005,0.00407064,0.06173522,0.09518897,-0.09106059,0.09518897,0.16299189,-0.13163813,-0.09106059,-0.13163810,0.34321326,0.04843904,-0.01449923,0.05332825,0.69494526,0.00000000,0.00000000,0.00000000,0.61448867,0.00000000,0.00000000,-0.00000000,0.64256796,-3.72837901,0.33172959,-8.85111618,10291009.21005011,0.00000000,0.00000000,0.00000000,7348085.28795838,0.00000000,0.00000000,-0.00000000,9135388.76920938,0.73406326,0.58782098,1.55581450,0.94931424,0.03706408,0.28248515,-0.13278130
3.20699370,-0.97509199,0.07371178,0.20915137,0.00423568,0.06195007,0.09538773,-0.09103633,0.09538773,0.16311882,-0.13175389,-0.09103632,-0.13175387,0.34340082,0.04790729,-0.01134599,0.04629698,0.69494526,0.00000000,0.00000000,0.00000000,0.61448867,0.00000000,0.00000000,-0.00000000,0.64256796,-3.72596645,0.37948397,-8.67677975,10291009.21005011,0.00000000,0.00000000,0.00000000,7348085.28795838,0.00000000,0.00000000,-0.00000000,9135388.76920938,0.74028917,0.58657098,1.55587338,0.94921717,0.03767566,0.28255198,-0.13316038
3.21193347,-0.97509086,0.07386031,0.20910302,0.00428465,0.06201912,0.09545232,-0.09103251,0.09545232,0.16316288,-0.13179250,-0.09103252,-0.13179250,0.34345970,0.04634431,-0.01504302,0.04682892,0.69494526,0.00000000,0.00000000,0.00000000,0.61448867,0.00000000,0.00000000,-0.00000000,0.64256796,-3.72601962,0.41290104,-8.63139057,10291009.21005011,0.00000000,0.00000000,0.00000000,7348085.28795838,0.00000000,0.00000000,-0.00000000,9135388.76920938,0.74121379,0.58638231,1.55587653,0.94920277,0.03775036,0.28256261,-0.13321935
3.21687351,-0.97509021,0.07401136,0.20905182,0.00431584,0.06208148,0.09551408,-0.09103097,0.09551407,0.16320702,-0.13183089,-0.09103096,-0.13183090,0.34352290,0.04525834,-0.01189988,0.04899860,0.69494526,0.00000000,0.00000000,0.00000000,0.61448867,0.00000000,0.00000000,-0.00000000,0.64256796,-3.70931697,0.45126203,-8.62658882,10291009.21005011,0.00000000,0.00000000,0.00000000,7348085.28795838,0.00000000,0.00000000,-0.00000000,9135388.76920938,0.74306120,0.58600267,1.55587818,0.94917428,0.03789012,0.28258284,-0.13333965
3.22181354,-0.97508895,0.07417055,0.20900092,0.00434680,0.06214693,0.09558016,-0.09102980,0.09558016,0.16325708,-0.13187141,-0.09102981,-0.13187143,0.34358787,0.04205920,-0.00982992,0.05007505,0.69494526,0.00000000,0.00000000,0.00000000,0.61448867,0.00000000,0.00000000,-0.00000000,0.64256796,-3.68065715,0.49690571,-8.63849831,10291009.21005011,0.00000000,0.00000000,0.00000000,7348085.28795838,0.00000000,0.00000000,-0.00000000,9135388.76920938,0.74506486,0.58558661,1.55587275,0.94914398,0.03802964,0.28260236,-0.13347415
3.23663364,-0.97506857,0.07470553,0.20890392,0.00442157,0.06237136,0.09581340,-0.09104791,0.09581340,0.16345091,-0.13202330,-0.09104792,-0.13202333,0.34377962,0.04791163,-0.02134821,0.06683932,0.69494526,0.00000000,0.00000000,0.00000000,0.61448867,0.00000000,0.00000000,-0.00000000,0.64256796,-3.64486599,0.57603937,-8.70290661,10291009.21005011,0.00000000,0.00000000,0.00000000,7348085.28795838,0.00000000,0.00000000,-0.00000000,9135388.76920938,0.75253329,0.58399070,1.55577935,0.94902931,0.03846477,0.28267316,-0.13401386
3.25639351,-0.97499973,0.07559396,0.20890646,0.00438095,0.06271316,0.09621299,-0.09114083,0.09621300,0.16383892,-0.13232040,-0.09114083,-0.13232038,0.34405372,0.03465197,-0.02780296,0.08139374,0.69494526,0.00000000,0.00000000,0.00000000,0.61448867,0.00000000,0.00000000,-0.00000000,0.64256796,-3.50880671,0.45574832,-8.89410305,10291009.21005011,0.00000000,0.00000000,0.00000000,7348085.28795838,0.00000000,0.00000000,-0.00000000,9135388.76920938,0.75784211,0.58280670,1.55563577,0.94893643,0.03871603,0.28275188,-0.13443249
3.26133354,-0.97498381,0.07581303,0.20890179,0.00436049,0.06279235,0.09631001,-0.09116387,0.09631000,0.16393645,-0.13239210,-0.09116387,-0.13239207,0.34412582,0.03095106,-0.02678663,0.07705864,0.69494526,0.00000000,0.00000000,0.00000000,0.61448867,0.00000000,0.00000000,-0.00000000,0.64256796,-3.45872569,0.41570547,-8.90849972,10291009.21005011,0.00000000,0.00000000,0.00000000,7348085.28795838,0.00000000,0.00000000,-0.00000000,9135388.76920938,0.75960455,0.58240353,1.55557341,0.94890253,0.03879125,0.28278705,-0.13457604
3.27862352,-0.97493094,0.07650226,0.20889708,0.00436732,0.06307491,0.09663373,-0.09123012,0.09663374,0.16425099,-0.13263087,-0.09123012,-0.13263089,0.34434618,0.04005379,-0.03510021,0.06136401,0.69494526,0.00000000,0.00000000,0.00000000,0.61448867,0.00000000,0.00000000,-0.00000000,0.64256796,-3.38709021,0.44986531,-8.80106735,10291009.21005011,0.00000000,0.00000000,0.00000000,7348085.28795838,0.00000000,0.00000000,-0.00000000,9135388.76920938,0.76624415,0.58083553,1.55527643,0.94876351,0.03905425,0.28295223,-0.13513184
3.28356356,-0.97491568,0.07668231,0.20890179,0.00438774,0.06315826,0.09672223,-0.09124698,0.09672223,0.16433005,-0.13270050,-0.09124699,-0.13270052,0.34439972,0.03846135,-0.03353800,0.06082677,0.69494526,0.00000000,0.00000000,0.00000000,0.61448867,0.00000000,0.00000000,-0.00000000,0.64256796,-3.35373783,0.46692747,-8.84166527,10291009.21005011,0.00000000,0.00000000,0.00000000,7348085.28795838,0.00000000,0.00000000,-0.00000000,9135388.76920938,0.76747047,0.58053701,1.55521173,0.94873661,0.03910214,0.28298556,-0.13523697
3.28850359,-0.97490185,0.07685225,0.20890290,0.00442494,0.06324386,0.09680937,-0.09125927,0.09680937,0.16440598,-0.13276660,-0.09125926,-0.13276658,0.34444900,0.04432037,-0.03557876,0.05542605,0.69494526,0.00000000,0.00000000,0.00000000,0.61448867,0.00000000,0.00000000,-0.00000000,0.64256796,-3.33226323,0.48624590,-8.86792183,10291009.21005011,0.00000000,0.00000000,0.00000000,7348085.28795838,0.00000000,0.00000000,-0.00000000,9135388.76920938,0.76941473,0.58005778,1.55510341,0.94869362,0.03917916,0.28303865,-0.13540508
3.29344362,-0.97488725,0.07702375,0.20890717,0.00446851,0.06333345,0.09689814,-0.09127162,0.09689813,0.16448073,-0.13283592,-0.09127163,-0.13283592,0.34449634,0.03902390,-0.03563334,0.05812598,0.69494526,0.00000000,0.00000000,0.00000000,0.61448867,0.00000000,0.00000000,-0.00000000,0.64256796,-3.33714104,0.52916396,-8.88221359,10291009.21005011,0.00000000,0.00000000,0.00000000,7348085.28795838,0.00000000,0.00000000,-0.00000000,9135388.76920938,0.77187352,0.57944105,1.55495689,0.94863874,0.03927855,0.28310610,-0.13561957
3.30826346,-0.97483879,0.07755116,0.20893632,0.00456092,0.06359623,0.09716756,-0.09132024,0.09716756,0.16471726,-0.13304860,-0.09132025,-0.13304859,0.34464456,0.04164889,-0.03718882,0.06406917,0.69494526,0.00000000,0.00000000,0.00000000,0.61448867,0.00000000,0.00000000,-0.00000000,0.64256796,-3.36084342,0.64106828,-8.92743874,10291009.21005011,0.00000000,0.00000000,0.00000000,7348085.28795838,0.00000000,0.00000000,-0.00000000,9135388.76920938,0.77769748,0.57793081,1.55457151,0.94850711,0.03952148,0.28326774,-0.13613119
3.32308356,-0.97479016,0.07813740,0.20894291,0.00463867,0.06387181,0.09745691,-0.09136795,0.09745691,0.16497635,-0.13327026,-0.09136795,-0.13327027,0.34481231,0.04214751,-0.03139936,0.06842807,0.69494526,0.00000000,0.00000000,0.00000000,0.61448867,0.00000000,0.00000000,-0.00000000,0.64256796,-3.38724899,0.65035319,-8.92981625,10291009.21005011,0.00000000,0.00000000,0.00000000,7348085.28795838,0.00000000,0.00000000,-0.00000000,9135388.76920938,0.78426306,0.57614066,1.55408099,0.94835366,0.03978643,0.28346306,-0.13671525
3.32802359,-0.97477299,0.07834033,0.20894687,0.00465150,0.06396188,0.09755454,-0.09138697,0.09755455,0.16506588,-0.13334419,-0.09138697,-0.13334419,0.34487309,0.03684438,-0.03198075,0.07057657,0.69494526,0.00000000,0.00000000,0.00000000,0.61448867,0.00000000,0.00000000,-0.00000000,0.64256796,-3.38724899,0.67899221,-8.95366383,10291009.21005011,0.00000000,0.00000000,0.00000000,7348085.28795838,0.00000000,0.00000000,-0.00000000,9135388.76920938,0.78548760,0.57579610,1.55398380,0.94832404,0.03983164,0.28350231,-0.13682611
3.34284368,-0.97472268,0.07902231,0.20892458,0.00465791,0.06424041,0.09786853,-0.09144375,0.09786853,0.16536535,-0.13357397,-0.09144375,-0.13357397,0.34508379,0.03884605,-0.02303017,0.08899868,0.69494526,0.00000000,0.00000000,0.00000000,0.61448867,0.00000000,0.00000000,-0.00000000,0.64256796,-3.42773294,0.77163541,-9.10873032,10291009.21005011,0.00000000,0.00000000,0.00000000,7348085.28795838,0.00000000,0.00000000,-0.00000000,9135388.76920938,0.79216698,0.57385620,1.55342980,0.94815899,0.04005570,0.28372051,-0.13745086
3.34778346,-0.97470474,0.07928436,0.20890942,0.00464830,0.06434058,0.09798517,-0.09146449,0.09798516,0.16547909,-0.13365513,-0.09146449,-0.13365512,0.34516610,0.03882852,-0.02303339,0.09495176,0.69494526,0.00000000,0.00000000,0.00000000,0.61448867,0.00000000,0.00000000,-0.00000000,0.64256796,-3.42296076,0.77168560,-9.16125870,10291009.21005011,0.00000000,0.00000000,0.00000000,7348085.28795838,0.00000000,0.00000000,-0.00000000,9135388.76920938,0.79403785,0.57329436,1.55326913,0.94811247,0.04011334,0.28377934,-0.13763338
3.35272349,-0.97468674,0.07955005,0.20889276,0.00462258,0.06443532,0.09809966,-0.09148791,0.09809968,0.16559123,-0.13373599,-0.09148791,-0.13373596,0.34525299,0.03509406,-0.01939068,0.09549171,0.69494526,0.00000000,0.00000000,0.00000000,0.61448867,0.00000000,0.00000000,-0.00000000,0.64256796,-3.41818857,0.74548322,-9.20426273,10291009.21005011,0.00000000,0.00000000,0.00000000,7348085.28795838,0.00000000,0.00000000,-0.00000000,9135388.76920938,0.79615343,0.57264930,1.55308565,0.94806045,0.04017805,0.28384249,-0.13784252
3.35766352,-0.97466969,0.07981298,0.20887226,0.00460967,0.06453350,0.09821617,-0.09150752,0.09821616,0.16570690,-0.13381466,-0.09150752,-0.13381469,0.34533829,0.03616059,-0.02043154,0.09549206,0.69494526,0.00000000,0.00000000,0.00000000,0.61448867,0.00000000,0.00000000,-0.00000000,0.64256796,-3.41341639,0.70734805,-9.25205231,10291009.21005011,0.00000000,0.00000000,0.00000000,7348085.28795838,0.00000000,0.00000000,-0.00000000,9135388.76920938,0.79833541,0.57197325,1.55289517,0.94800802,0.04024625,0.28390245,-0.13805952
3.37495351,-0.97464389,0.08062862,0.20867833,0.00465471,0.06484552,0.09856361,-0.09152103,0.09856362,0.16601864,-0.13402863,-0.09152104,-0.13402864,0.34563307,0.04935336,0.00075235,0.07068753,0.69494526,0.00000000,0.00000000,0.00000000,0.61448867,0.00000000,0.00000000,-0.00000000,0.64256796,-3.50170159,0.67300779,-9.35230637,10291009.21005011,0.00000000,0.00000000,0.00000000,7348085.28795838,0.00000000,0.00000000,-0.00000000,9135388.76920938,0.80572231,0.56960491,1.55225033,0.94784679,0.04050928,0.28405036,-0.13878348
3.38977360,-0.97466981,0.08120117,0.20833103,0.00482757,0.06507693,0.09878207,-0.09145226,0.09878207,0.16616144,-0.13411505,-0.09145227,-0.13411507,0.34588941,0.07046564,0.02359155,0.05294481,0.69494526,0.00000000,0.00000000,0.00000000,0.61448867,0.00000000,0.00000000,-0.00000000,0.64256796,-3.60907483,0.72677052,-9.28533745,10291009.21005011,0.00000000,0.00000000,0.00000000,7348085.28795838,0.00000000,0.00000000,-0.00000000,9135388.76920938,0.81386432,0.56685672,1.55155733,0.94770628,0.04085995,0.28409957,-0.13953750
3.39471364,-0.97468698,0.08136607,0.20818408,0.00492535,0.06515341,0.09884141,-0.09141241,0.09884143,0.16618125,-0.13412608,-0.09141241,-0.13412604,0.34597114,0.07523951,0.02785265,0.04377084,0.69494526,0.00000000,0.00000000,0.00000000,0.61448867,0.00000000,0.00000000,-0.00000000,0.64256796,-3.61626029,0.70999169,-9.23998928,10291009.21005011,0.00000000,0.00000000,0.00000000,7348085.28795838,0.00000000,0.00000000,-0.00000000,9135388.76920938,0.81403851,0.56679641,1.55154285,0.94770374,0.04086804,0.28409926,-0.13955298
3.39965367,-0.97470814,0.08151829,0.20802297,0.00502716,0.06522330,0.09889097,-0.09136743,0.09889097,0.16618669,-0.13412836,-0.09136744,-0.13412834,0.34605383,0.07839787,0.03419884,0.03784257,0.69494526,0.00000000,0.00000000,0.00000000,0.61448867,0.00000000,0.00000000,-0.00000000,0.64256796,-3.61387396,0.67660451,-9.18272209,10291009.21005011,0.00000000,0.00000000,0.00000000,7348085.28795838,0.00000000,0.00000000,-0.00000000,9135388.76920938,0.81625985,0.56602189,1.55135976,0.94767332,0.04097307,0.28409019,-0.13974709
