time_s,orientation_x,orientation_y,orientation_z,orientation_w,orientation_covariance_0,orientation_covariance_1,orientation_covariance_2,orientation_covariance_3,orientation_covariance_4,orientation_covariance_5,orientation_covariance_6,orientation_covariance_7,orientation_covariance_8,angular_velocity_x,angular_velocity_y,angular_velocity_z,angular_velocity_covariance_0,angular_velocity_covariance_1,angular_velocity_covariance_2,angular_velocity_covariance_3,angular_velocity_covariance_4,angular_velocity_covariance_5,angular_velocity_covariance_6,angular_velocity_covariance_7,angular_velocity_covariance_8,linear_acceleration_x,linear_acceleration_y,linear_acceleration_z,linear_acceleration_covariance_0,linear_acceleration_covariance_1,linear_acceleration_covariance_2,linear_acceleration_covariance_3,linear_acceleration_covariance_4,linear_acceleration_covariance_5,linear_acceleration_covariance_6,linear_acceleration_covariance_7,linear_acceleration_covariance_8,x,y,z,w,rot_x,rot_y,rot_z
0.11419241,0.58711845,0.79379255,-0.13813619,0.07812624,2.89672299,0.26743388,1.91876231,0.26743386,5.63554749,3.78889938,1.91876259,3.78889938,4.15409511,0.00863627,0.01607048,-0.06514544,0.69494526,0.00000000,0.00000000,0.00000000,0.61448867,0.00000000,0.00000000,-0.00000000,0.64256796,-2.56151009,-1.12400544,-9.10130501,10291009.21005011,0.00000000,0.00000000,0.00000000,7348085.28795838,0.00000000,0.00000000,-0.00000000,9135388.76920938,-2.46846807,-0.97089070,2.07645919,0.16177020,-0.21393918,0.09550946,0.95861273
0.12901250,0.58677816,0.79409951,-0.13803248,0.07774595,2.88755409,0.26025882,1.91134186,0.26025901,5.60664641,3.77350161,1.91134186,3.77350161,4.14707084,0.01345467,0.00559945,-0.06137451,0.69494526,0.00000000,0.00000000,0.00000000,0.61448867,0.00000000,0.00000000,-0.00000000,0.64256796,-2.55191255,-1.13584292,-9.10847855,10291009.21005011,0.00000000,0.00000000,0.00000000,7348085.28795838,0.00000000,0.00000000,-0.00000000,9135388.76920938,-2.46850710,-0.97123318,2.07665547,0.16116577,-0.21362495,0.09537448,0.95879804
0.13395254,0.58666670,0.79420006,-0.13799751,0.07762174,2.88456280,0.25793811,1.90894151,0.25793808,5.59715973,3.76846211,1.90894137,3.76846183,4.14481013,0.01713036,0.01142230,-0.06189072,0.69494526,0.00000000,0.00000000,0.00000000,0.61448867,0.00000000,0.00000000,-0.00000000,0.64256796,-2.51850748,-1.12833202,-9.15863037,10291009.21005011,0.00000000,0.00000000,0.00000000,7348085.28795838,0.00000000,0.00000000,-0.00000000,9135388.76920938,-2.46850849,-0.97124063,2.07665933,0.16115190,-0.21361916,0.09537368,0.95880174
0.13889257,0.58655429,0.79430091,-0.13796338,0.07749984,2.88152553,0.25562539,1.90650003,0.25562539,5.58760656,3.76334558,1.90649989,3.76334558,4.14243333,0.01821345,0.00827884,-0.06406263,0.69494526,0.00000000,0.00000000,0.00000000,0.61448867,0.00000000,0.00000000,-0.00000000,0.64256796,-2.50893688,-1.11630118,-9.18966007,10291009.21005011,0.00000000,0.00000000,0.00000000,7348085.28795838,0.00000000,0.00000000,-0.00000000,9135388.76920938,-2.46852259,-0.97130872,2.07669368,0.16102420,-0.21356853,0.09537133,0.95883471
0.14383234,0.58644724,0.79439712,-0.13792779,0.07738718,2.87860184,0.25342471,1.90414872,0.25342462,5.57853878,3.75849281,1.90414886,3.75849281,4.14016681,0.01820723,0.00722478,-0.05973576,0.69494526,0.00000000,0.00000000,0.00000000,0.61448867,0.00000000,0.00000000,-0.00000000,0.64256796,-2.52325320,-1.09735906,-9.19202137,10291009.21005011,0.00000000,0.00000000,0.00000000,7348085.28795838,0.00000000,0.00000000,-0.00000000,9135388.76920938,-2.46854470,-0.97139642,2.07673533,0.16085754,-0.21350914,0.09538177,0.95887487
0.14877238,0.58633894,0.79449385,-0.13788846,0.07728507,2.87557038,0.25122351,1.90170724,0.25122368,5.56945549,3.75355748,1.90170751,3.75355748,4.13773599,0.01770175,0.00301214,-0.05920663,0.69494526,0.00000000,0.00000000,0.00000000,0.61448867,0.00000000,0.00000000,-0.00000000,0.64256796,-2.53518367,-1.08555150,-9.16335201,10291009.21005011,0.00000000,0.00000000,0.00000000,7348085.28795838,0.00000000,0.00000000,-0.00000000,9135388.76920938,-2.46856957,-0.97147711,2.07677082,0.16070246,-0.21346014,0.09540522,0.95890945
0.15371241,0.58624029,0.79458195,-0.13785143,0.07719352,2.87280101,0.24922669,1.89947991,0.24922679,5.56120334,3.74907678,1.89947977,3.74907706,4.13552736,0.01611023,0.00246909,-0.05758887,0.69494526,0.00000000,0.00000000,0.00000000,0.61448867,0.00000000,0.00000000,-0.00000000,0.64256796,-2.54472804,-1.08565187,-9.13230801,10291009.21005011,0.00000000,0.00000000,0.00000000,7348085.28795838,0.00000000,0.00000000,-0.00000000,9135388.76920938,-2.46860188,-0.97156355,2.07680541,0.16053462,-0.21341332,0.09544532,0.95894399
0.16853250,0.58599889,0.79480380,-0.13772766,0.07696328,2.86607816,0.24408625,1.89404132,0.24408630,5.54127306,3.73839215,1.89404091,3.73839215,4.13062971,0.01821430,-0.00172423,-0.04135331,0.69494526,0.00000000,0.00000000,0.00000000,0.61448867,0.00000000,0.00000000,-0.00000000,0.64256796,-2.56625581,-1.05484712,-9.19673347,10291009.21005011,0.00000000,0.00000000,0.00000000,7348085.28795838,0.00000000,0.00000000,-0.00000000,9135388.76920938,-2.46875128,-0.97183122,2.07688413,0.15998331,-0.21328537,0.09562859,0.95904633
0.18335234,0.58585703,0.79494756,-0.13759372,0.07679766,2.86238096,0.24051716,1.89101997,0.24051703,5.52997062,3.73274231,1.89102011,3.73274231,4.12904139,0.01710847,-0.00226975,-0.02566539,0.69494526,0.00000000,0.00000000,0.00000000,0.61448867,0.00000000,0.00000000,-0.00000000,0.64256796,-2.53998232,-1.07366633,-9.21586418,10291009.21005011,0.00000000,0.00000000,0.00000000,7348085.28795838,0.00000000,0.00000000,-0.00000000,9135388.76920938,-2.46893093,-0.97201819,2.07689943,0.15954176,-0.21319044,0.09577109,0.95912677
0.18829238,0.58582896,0.79497975,-0.13754545,0.07676505,2.86165121,0.23962405,1.89038844,0.23962407,5.52794484,3.73179758,1.89038858,3.73179758,4.12898820,0.01130662,-0.00969484,-0.01974723,0.69494526,0.00000000,0.00000000,0.00000000,0.61448867,0.00000000,0.00000000,-0.00000000,0.64256796,-2.53282404,-1.09507036,-9.21827602,10291009.21005011,0.00000000,0.00000000,0.00000000,7348085.28795838,0.00000000,0.00000000,-0.00000000,9135388.76920938,-2.46893934,-0.97202478,2.07689898,0.15952551,-0.21318746,0.09577738,0.95912951
0.21052239,0.58580607,0.79504347,-0.13731413,0.07669407,2.86140492,0.23696747,1.88986025,0.23696776,5.52802242,3.73275367,1.88985997,3.73275340,4.13210360,0.00812155,-0.01657218,-0.00462230,0.69494526,0.00000000,0.00000000,0.00000000,0.61448867,0.00000000,0.00000000,-0.00000000,0.64256796,-2.51132298,-1.15689838,-9.22073460,10291009.21005011,0.00000000,0.00000000,0.00000000,7348085.28795838,0.00000000,0.00000000,-0.00000000,9135388.76920938,-2.46927902,-0.97219375,2.07683336,0.15910481,-0.21316006,0.09606035,0.95917718
0.21546242,0.58580202,0.79505444,-0.13727224,0.07668629,2.86131820,0.23646638,1.88970829,0.23646652,5.52813767,3.73292240,1.88970829,3.73292240,4.13258040,0.00866955,-0.01972222,-0.00408753,0.69494526,0.00000000,0.00000000,0.00000000,0.61448867,0.00000000,0.00000000,-0.00000000,0.64256796,-2.50655079,-1.18071401,-9.22076035,10291009.21005011,0.00000000,0.00000000,0.00000000,7348085.28795838,0.00000000,0.00000000,-0.00000000,9135388.76920938,-2.46934508,-0.97221117,2.07681332,0.15906097,-0.21316970,0.09611878,0.95917645
0.22040245,0.58579659,0.79506433,-0.13723798,0.07668669,2.86112344,0.23602819,1.88946643,0.23602805,5.52813878,3.73293653,1.88946601,3.73293653,4.13276879,0.00606805,-0.02658474,-0.00519230,0.69494526,0.00000000,0.00000000,0.00000000,0.61448867,0.00000000,0.00000000,-0.00000000,0.64256796,-2.52327967,-1.19997978,-9.21360779,10291009.21005011,0.00000000,0.00000000,0.00000000,7348085.28795838,0.00000000,0.00000000,-0.00000000,9135388.76920938,-2.46944161,-0.97223068,2.07678126,0.15901046,-0.21318884,0.09620265,0.95917217
0.23522255,0.58575821,0.79510671,-0.13715658,0.07668610,2.85977560,0.23458965,1.88816832,0.23458959,5.52619113,3.73170893,1.88816818,3.73170920,4.13222910,0.01085112,-0.02653321,-0.01059296,0.69494526,0.00000000,0.00000000,0.00000000,0.61448867,0.00000000,0.00000000,-0.00000000,0.64256796,-2.54711413,-1.19784653,-9.20642757,10291009.21005011,0.00000000,0.00000000,0.00000000,7348085.28795838,0.00000000,0.00000000,-0.00000000,9135388.76920938,-2.46988067,-0.97225911,2.07660511,0.15887268,-0.21329973,0.09648170,0.95914231
0.25004239,0.58567053,0.79517800,-0.13712952,0.07666501,2.85683778,0.23288117,1.88566782,0.23288103,5.51967718,3.72760363,1.88566782,3.72760363,4.12923782,0.01670795,-0.02910016,-0.01708408,0.69494526,0.00000000,0.00000000,0.00000000,0.61448867,0.00000000,0.00000000,-0.00000000,0.64256796,-2.59952807,-1.16260684,-9.19919109,10291009.21005011,0.00000000,0.00000000,0.00000000,7348085.28795838,0.00000000,0.00000000,-0.00000000,9135388.76920938,-2.47024674,-0.97223572,2.07643281,0.15877297,-0.21339680,0.09656787,0.95912856
0.25498242,0.58563304,0.79520756,-0.13712637,0.07664956,2.85563401,0.23223385,1.88467447,0.23223367,5.51674158,3.72580032,1.88467461,3.72580060,4.12796007,0.01883956,-0.02749757,-0.02139695,0.69494526,0.00000000,0.00000000,0.00000000,0.61448867,0.00000000,0.00000000,-0.00000000,0.64256796,-2.61869669,-1.18666601,-9.20159721,10291009.21005011,0.00000000,0.00000000,0.00000000,7348085.28795838,0.00000000,0.00000000,-0.00000000,9135388.76920938,-2.47085022,-0.97214445,2.07612123,0.15855302,-0.21359330,0.09659485,0.95911849
0.25992245,0.58559340,0.79523736,-0.13713120,0.07663488,2.85434130,0.23162621,1.88361074,0.23162656,5.51357159,3.72381999,1.88361088,3.72381971,4.12645681,0.02203756,-0.03062043,-0.02085471,0.69494526,0.00000000,0.00000000,0.00000000,0.61448867,0.00000000,0.00000000,-0.00000000,0.64256796,-2.63062716,-1.20588410,-9.19444561,10291009.21005011,0.00000000,0.00000000,0.00000000,7348085.28795838,0.00000000,0.00000000,-0.00000000,9135388.76920938,-2.47085189,-0.97214413,2.07612034,0.15855236,-0.21359393,0.09659501,0.95911844
0.26486249,0.58555090,0.79526931,-0.13713680,0.07661845,2.85297324,0.23099641,1.88250615,0.23099652,5.51014230,3.72171470,1.88250588,3.72171498,4.12490313,0.02097201,-0.02747376,-0.02463587,0.69494526,0.00000000,0.00000000,0.00000000,0.61448867,0.00000000,0.00000000,-0.00000000,0.64256796,-2.63303947,-1.20590675,-9.18728447,10291009.21005011,0.00000000,0.00000000,0.00000000,7348085.28795838,0.00000000,0.00000000,-0.00000000,9135388.76920938,-2.47085314,-0.97214389,2.07611967,0.15855188,-0.21359440,0.09659513,0.95911841
0.26980252,0.58550507,0.79530454,-0.13714185,0.07659365,2.85154672,0.23029233,1.88135613,0.23029254,5.50638497,3.71945426,1.88135613,3.71945426,4.12332478,0.02413721,-0.02428509,-0.02624255,0.69494526,0.00000000,0.00000000,0.00000000,0.61448867,0.00000000,0.00000000,-0.00000000,0.64256796,-2.64019775,-1.21314180,-9.19922352,10291009.21005011,0.00000000,0.00000000,0.00000000,7348085.28795838,0.00000000,0.00000000,-0.00000000,9135388.76920938,-2.47085440,-0.97214365,2.07611900,0.15855138,-0.21359488,0.09659525,0.95911837
0.27474255,0.58546323,0.79533786,-0.13714354,0.07656436,2.85029308,0.22960456,1.88034352,0.22960459,5.50295013,3.71744317,1.88034379,3.71744345,4.12201989,0.02465652,-0.02322825,-0.02678408,0.69494526,0.00000000,0.00000000,0.00000000,0.61448867,0.00000000,0.00000000,-0.00000000,0.64256796,-2.65684724,-1.23480153,-9.20877934,10291009.21005011,0.00000000,0.00000000,0.00000000,7348085.28795838,0.00000000,0.00000000,-0.00000000,9135388.76920938,-2.47088180,-0.97213838,2.07610434,0.15854064,-0.21360537,0.09659811,0.95911752
0.27968258,0.58541048,0.79537994,-0.13714463,0.07652884,2.84871224,0.22875227,1.87907962,0.22875232,5.49856834,3.71488574,1.87907976,3.71488574,4.12037561,0.02623649,-0.02005501,-0.03001881,0.69494526,0.00000000,0.00000000,0.00000000,0.61448867,0.00000000,0.00000000,-0.00000000,0.64256796,-2.65446115,-1.26102889,-9.19209385,10291009.21005011,0.00000000,0.00000000,0.00000000,7348085.28795838,0.00000000,0.00000000,-0.00000000,9135388.76920938,-2.47105440,-0.97210353,2.07601131,0.15847297,-0.21367435,0.09662397,0.95911073
0.28462236,0.58535850,0.79542047,-0.13714767,0.07649924,2.84711146,0.22794366,1.87778941,0.22794341,5.49429737,3.71234078,1.87778913,3.71234050,4.11862854,0.02413608,-0.02323193,-0.03003270,0.69494526,0.00000000,0.00000000,0.00000000,0.61448867,0.00000000,0.00000000,-0.00000000,0.64256796,-2.64730310,-1.28004646,-9.14914131,10291009.21005011,0.00000000,0.00000000,0.00000000,7348085.28795838,0.00000000,0.00000000,-0.00000000,9135388.76920938,-2.47120987,-0.97206990,2.07592650,0.15841218,-0.21373947,0.09665765,0.95910287
0.28956239,0.58529425,0.79546922,-0.13715489,0.07647137,2.84507765,0.22700100,1.87615538,0.22700090,5.48899966,3.70910846,1.87615552,3.70910846,4.11628971,0.02524300,-0.02795063,-0.03599465,0.69494526,0.00000000,0.00000000,0.00000000,0.61448867,0.00000000,0.00000000,-0.00000000,0.64256796,-2.64253092,-1.28954256,-9.12050247,10291009.21005011,0.00000000,0.00000000,0.00000000,7348085.28795838,0.00000000,0.00000000,-0.00000000,9135388.76920938,-2.47139254,-0.97202807,2.07582568,0.15834135,-0.21381760,0.09670800,0.95909208
0.30438249,0.58505315,0.79564762,-0.13720594,0.07636881,2.83742697,0.22370835,1.87004121,0.22370839,5.46889595,3.69683081,1.87004135,3.69683025,4.10722525,0.02370930,-0.03111648,-0.04357253,0.69494526,0.00000000,0.00000000,0.00000000,0.61448867,0.00000000,0.00000000,-0.00000000,0.64256796,-2.58301115,-1.27219713,-9.13963604,10291009.21005011,0.00000000,0.00000000,0.00000000,7348085.28795838,0.00000000,0.00000000,-0.00000000,9135388.76920938,-2.47196347,-0.97188496,2.07550278,0.15812247,-0.21405511,0.09691825,0.95905399
0.31920258,0.58475697,0.79585153,-0.13732140,0.07630508,2.82759842,0.22030529,1.86217762,0.22030530,5.44432512,3.68120142,1.86217776,3.68120170,4.09445140,0.02698923,-0.04527961,-0.04955671,0.69494526,0.00000000,0.00000000,0.00000000,0.61448867,0.00000000,0.00000000,-0.00000000,0.64256796,-2.61636329,-1.26062036,-9.09662342,10291009.21005011,0.00000000,0.00000000,0.00000000,7348085.28795838,0.00000000,0.00000000,-0.00000000,9135388.76920938,-2.47248338,-0.97174336,2.07519883,0.15789176,-0.21424732,0.09711810,0.95902886
0.32661250,0.58460051,0.79595304,-0.13741192,0.07628223,2.82234781,0.21880857,1.85800916,0.21880855,5.43128004,3.67276448,1.85800902,3.67276476,4.08722017,0.02858541,-0.04631422,-0.05335212,0.69494526,0.00000000,0.00000000,0.00000000,0.61448867,0.00000000,0.00000000,-0.00000000,0.64256796,-2.66397929,-1.26590466,-9.18015289,10291009.21005011,0.00000000,0.00000000,0.00000000,7348085.28795838,0.00000000,0.00000000,-0.00000000,9135388.76920938,-2.47265189,-0.97169588,2.07509843,0.15780554,-0.21430440,0.09717756,0.95902427
0.32908239,0.58454829,0.79598713,-0.13744071,0.07627460,2.82059603,0.21830358,1.85661713,0.21830343,5.42693981,3.66996879,1.85661671,3.66996851,4.08483202,0.02857577,-0.04578952,-0.05118604,0.69494526,0.00000000,0.00000000,0.00000000,0.61448867,0.00000000,0.00000000,-0.00000000,0.64256796,-2.67113733,-1.26359344,-9.21595860,10291009.21005011,0.00000000,0.00000000,0.00000000,7348085.28795838,0.00000000,0.00000000,-0.00000000,9135388.76920938,-2.47285206,-0.97163866,2.07497818,0.15769824,-0.21437138,0.09724976,0.95901964
0.33649257,0.58439207,0.79609150,-0.13751669,0.07624549,2.81541884,0.21668953,1.85249909,0.21668979,5.41400223,3.66169836,1.85249923,3.66169808,4.07791995,0.02699561,-0.04527844,-0.05172146,0.69494526,0.00000000,0.00000000,0.00000000,0.61448867,0.00000000,0.00000000,-0.00000000,0.64256796,-2.68794584,-1.26375949,-9.26370811,10291009.21005011,0.00000000,0.00000000,0.00000000,7348085.28795838,0.00000000,0.00000000,-0.00000000,9135388.76920938,-2.47305007,-0.97158129,2.07485835,0.15758905,-0.21443872,0.09732712,0.95901468
0.34143234,0.58428472,0.79616278,-0.13756874,0.07623035,2.81183938,0.21560117,1.84965131,0.21560148,5.40515054,3.65600474,1.84965131,3.65600474,4.07311123,0.02858227,-0.04420982,-0.05279672,0.69494526,0.00000000,0.00000000,0.00000000,0.61448867,0.00000000,0.00000000,-0.00000000,0.64256796,-2.69749022,-1.26863289,-9.23266888,10291009.21005011,0.00000000,0.00000000,0.00000000,7348085.28795838,0.00000000,0.00000000,-0.00000000,9135388.76920938,-2.47325523,-0.97152118,2.07473345,0.15747490,-0.21451135,0.09741743,0.95900802
0.34637238,0.58417833,0.79623187,-0.13762793,0.07621676,2.80827987,0.21459143,1.84681739,0.21459129,5.39638863,3.65032554,1.84681739,3.65032554,4.06821524,0.02911160,-0.04630992,-0.05009903,0.69494526,0.00000000,0.00000000,0.00000000,0.61448867,0.00000000,0.00000000,-0.00000000,0.64256796,-2.72368407,-1.27845991,-9.20400810,10291009.21005011,0.00000000,0.00000000,0.00000000,7348085.28795838,0.00000000,0.00000000,-0.00000000,9135388.76920938,-2.47346880,-0.97145800,2.07460275,0.15735660,-0.21458961,0.09752298,0.95899920
0.35131241,0.58407390,0.79630041,-0.13768795,0.07619300,2.80487329,0.21357910,1.84412116,0.21357879,5.38770650,3.64477599,1.84412088,3.64477627,4.06356942,0.03017297,-0.04471941,-0.05388040,0.69494526,0.00000000,0.00000000,0.00000000,0.61448867,0.00000000,0.00000000,-0.00000000,0.64256796,-2.75708938,-1.29313076,-9.22310066,10291009.21005011,0.00000000,0.00000000,0.00000000,7348085.28795838,0.00000000,0.00000000,-0.00000000,9135388.76920938,-2.47365427,-0.97140274,2.07448879,0.15725533,-0.21465871,0.09762347,0.95899012
0.35625244,0.58397269,0.79636735,-0.13774373,0.07616787,2.80158113,0.21258112,1.84151109,0.21258083,5.37931250,3.63944587,1.84151095,3.63944642,4.05913887,0.02959219,-0.03999533,-0.04954721,0.69494526,0.00000000,0.00000000,0.00000000,0.61448867,0.00000000,0.00000000,-0.00000000,0.64256796,-2.77132607,-1.29328835,-9.28277302,10291009.21005011,0.00000000,0.00000000,0.00000000,7348085.28795838,0.00000000,0.00000000,-0.00000000,9135388.76920938,-2.47390535,-0.97132752,2.07433397,0.15712191,-0.21475240,0.09777149,0.95897594
0.37107253,0.58367801,0.79657507,-0.13784322,0.07607468,2.79219530,0.20909366,1.83401223,0.20909373,5.35516223,3.62439828,1.83401237,3.62439773,4.04733136,0.02637669,-0.03213927,-0.04627140,0.69494526,0.00000000,0.00000000,0.00000000,0.61448867,0.00000000,0.00000000,-0.00000000,0.64256796,-2.75722146,-1.29789186,-9.29713058,10291009.21005011,0.00000000,0.00000000,0.00000000,7348085.28795838,0.00000000,0.00000000,-0.00000000,9135388.76920938,-2.47460285,-0.97111758,2.07390074,0.15677329,-0.21500243,0.09822169,0.95893096
0.38589238,0.58341366,0.79676390,-0.13792600,0.07597511,2.78390935,0.20583190,1.82735602,0.20583197,5.33359626,3.61104402,1.82735602,3.61104402,4.03703183,0.01948190,-0.03484224,-0.04305923,0.69494526,0.00000000,0.00000000,0.00000000,0.61448867,0.00000000,0.00000000,-0.00000000,0.64256796,-2.78574848,-1.30058897,-9.21592999,10291009.21005011,0.00000000,0.00000000,0.00000000,7348085.28795838,0.00000000,0.00000000,-0.00000000,9135388.76920938,-2.47529274,-0.97091136,2.07346383,0.15641688,-0.21522679,0.09859351,0.95890068
0.39083241,0.58333546,0.79682076,-0.13794178,0.07595040,2.78142672,0.20481200,1.82534507,0.20481206,5.32733830,3.60715399,1.82534534,3.60715427,4.03403195,0.02104412,-0.03219893,-0.03817522,0.69494526,0.00000000,0.00000000,0.00000000,0.61448867,0.00000000,0.00000000,-0.00000000,0.64256796,-2.78100300,-1.28621686,-9.21830845,10291009.21005011,0.00000000,0.00000000,0.00000000,7348085.28795838,0.00000000,0.00000000,-0.00000000,9135388.76920938,-2.47539656,-0.97088059,2.07339711,0.15636085,-0.21525857,0.09863658,0.95889825
0.39577244,0.58326012,0.79687506,-0.13795717,0.07593127,2.77901474,0.20385035,1.82339160,0.20385032,5.32135351,3.60339722,1.82339119,3.60339722,4.03107474,0.02051738,-0.03273023,-0.03817803,0.69494526,0.00000000,0.00000000,0.00000000,0.61448867,0.00000000,0.00000000,-0.00000000,0.64256796,-2.77623081,-1.28139353,-9.19682121,10291009.21005011,0.00000000,0.00000000,0.00000000,7348085.28795838,0.00000000,0.00000000,-0.00000000,9135388.76920938,-2.47562450,-0.97081327,2.07324964,0.15623665,-0.21532691,0.09871835,0.95889474
0.40071247,0.58318883,0.79692602,-0.13797331,0.07591429,2.77672411,0.20295992,1.82153552,0.20295971,5.31571337,3.59984214,1.82153566,3.59984214,4.02824248,0.01839503,-0.03433135,-0.03602768,0.69494526,0.00000000,0.00000000,0.00000000,0.61448867,0.00000000,0.00000000,-0.00000000,0.64256796,-2.77617788,-1.29571807,-9.18011665,10291009.21005011,0.00000000,0.00000000,0.00000000,7348085.28795838,0.00000000,0.00000000,-0.00000000,9135388.76920938,-2.47585037,-0.97074693,2.07310213,0.15611273,-0.21539296,0.09878146,0.95889359
0.40565250,0.58311802,0.79697746,-0.13798477,0.07589780,2.77445398,0.20203985,1.81969675,0.20203991,5.31013196,3.59633942,1.81969647,3.59633942,4.02550054,0.01785197,-0.03223333,-0.03602390,0.69494526,0.00000000,0.00000000,0.00000000,0.61448867,0.00000000,0.00000000,-0.00000000,0.64256796,-2.76901960,-1.30757558,-9.17774582,10291009.21005011,0.00000000,0.00000000,0.00000000,7348085.28795838,0.00000000,0.00000000,-0.00000000,9135388.76920938,-2.47608665,-0.97067793,2.07294631,0.15598366,-0.21546086,0.09883039,0.95889430
0.41306242,0.58301729,0.79705030,-0.13800253,0.07587512,2.77121113,0.20071062,1.81704429,0.20071081,5.30224330,3.59134923,1.81704416,3.59134896,4.02154042,0.01414705,-0.03437628,-0.03333370,0.69494526,0.00000000,0.00000000,0.00000000,0.61448867,0.00000000,0.00000000,-0.00000000,0.64256796,-2.77140570,-1.31714702,-9.16342831,10291009.21005011,0.00000000,0.00000000,0.00000000,7348085.28795838,0.00000000,0.00000000,-0.00000000,9135388.76920938,-2.47631878,-0.97061056,2.07279179,0.15585949,-0.21552725,0.09886704,0.95889579
0.41800245,0.58294928,0.79709750,-0.13802406,0.07586166,2.76900140,0.19986095,1.81522451,0.19986100,5.29692509,3.58790774,1.81522451,3.58790747,4.01869209,0.01523043,-0.03699411,-0.03278942,0.69494526,0.00000000,0.00000000,0.00000000,0.61448867,0.00000000,0.00000000,-0.00000000,0.64256796,-2.77625728,-1.31719005,-9.13478279,10291009.21005011,0.00000000,0.00000000,0.00000000,7348085.28795838,0.00000000,0.00000000,-0.00000000,9135388.76920938,-2.47655020,-0.97054381,2.07263638,0.15574028,-0.21559399,0.09889795,0.95889697
0.42294249,0.58287847,0.79714745,-0.13804804,0.07583731,2.76676451,0.19891144,1.81336870,0.19891166,5.29130379,3.58433798,1.81336884,3.58433770,4.01585622,0.00834367,-0.03759063,-0.03281017,0.69494526,0.00000000,0.00000000,0.00000000,0.61448867,0.00000000,0.00000000,-0.00000000,0.64256796,-2.76671290,-1.32424939,-9.11808205,10291009.21005011,0.00000000,0.00000000,0.00000000,7348085.28795838,0.00000000,0.00000000,-0.00000000,9135388.76920938,-2.47679126,-0.97047473,2.07247309,0.15562292,-0.21566492,0.09892979,0.95889679
0.43776258,0.58260578,0.79729086,-0.13842380,0.07574057,2.75813585,0.19759191,1.80650650,0.19759205,5.26817305,3.56888369,1.80650650,3.56888342,4.00142701,0.01098714,-0.03440565,-0.03820889,0.69494526,0.00000000,0.00000000,0.00000000,0.61448867,0.00000000,0.00000000,-0.00000000,0.64256796,-2.74998403,-1.32407606,-9.14912701,10291009.21005011,0.00000000,0.00000000,0.00000000,7348085.28795838,0.00000000,0.00000000,-0.00000000,9135388.76920938,-2.47836566,-0.97003425,2.07136749,0.15493931,-0.21615937,0.09919905,0.95886834
0.45258242,0.58229148,0.79745460,-0.13886479,0.07562628,2.74831949,0.19633979,1.79883130,0.19633983,5.24142463,3.55125901,1.79883130,3.55125873,3.98508839,0.01948806,-0.03799922,-0.04145028,0.69494526,0.00000000,0.00000000,0.00000000,0.61448867,0.00000000,0.00000000,-0.00000000,0.64256796,-2.73794770,-1.27861524,-9.08461857,10291009.21005011,0.00000000,0.00000000,0.00000000,7348085.28795838,0.00000000,0.00000000,-0.00000000,9135388.76920938,-2.47842946,-0.97001677,2.07132107,0.15491045,-0.21617996,0.09921189,0.95886703
0.45752245,0.58217674,0.79750198,-0.13906188,0.07564835,2.74436629,0.19658193,1.79581203,0.19658197,5.23191690,3.54448630,1.79581231,3.54448630,3.97778097,0.02216882,-0.04112518,-0.04523904,0.69494526,0.00000000,0.00000000,0.00000000,0.61448867,0.00000000,0.00000000,-0.00000000,0.64256796,-2.75226402,-1.27160597,-9.02730274,10291009.21005011,0.00000000,0.00000000,0.00000000,7348085.28795838,0.00000000,0.00000000,-0.00000000,9135388.76920938,-2.47850830,-0.96999520,2.07126351,0.15487427,-0.21620541,0.09922763,0.95886551
0.47728258,0.58170819,0.79767239,-0.13982902,0.07604050,2.72667623,0.19924772,1.78268038,0.19924803,5.19529836,3.51688955,1.78268051,3.51688955,3.94544089,0.03069007,-0.04366341,-0.05171151,0.69494526,0.00000000,0.00000000,0.00000000,0.61448867,0.00000000,0.00000000,-0.00000000,0.64256796,-2.79765248,-1.28162420,-9.11323929,10291009.21005011,0.00000000,0.00000000,0.00000000,7348085.28795838,0.00000000,0.00000000,-0.00000000,9135388.76920938,-2.47958597,-0.96970378,2.07045318,0.15430494,-0.21655252,0.09938013,0.95886317
0.48222236,0.58159298,0.79771632,-0.13999996,0.07614693,2.72231466,0.19985584,1.77945845,0.19985591,5.18646330,3.51023846,1.77945845,3.51023846,3.93767274,0.02963128,-0.04314782,-0.05225214,0.69494526,0.00000000,0.00000000,0.00000000,0.61448867,0.00000000,0.00000000,-0.00000000,0.64256796,-2.80483699,-1.28885663,-9.10369396,10291009.21005011,0.00000000,0.00000000,0.00000000,7348085.28795838,0.00000000,0.00000000,-0.00000000,9135388.76920938,-2.47981654,-0.96964189,2.07027406,0.15416885,-0.21662937,0.09940081,0.95886556
0.48716239,0.58147836,0.79775923,-0.14017218,0.07625507,2.71797443,0.20048249,1.77624815,0.20048228,5.17772687,3.50361037,1.77624788,3.50361009,3.92988520,0.03176585,-0.04470280,-0.05387368,0.69494526,0.00000000,0.00000000,0.00000000,0.61448867,0.00000000,0.00000000,-0.00000000,0.64256796,-2.81438136,-1.29611683,-9.08459473,10291009.21005011,0.00000000,0.00000000,0.00000000,7348085.28795838,0.00000000,0.00000000,-0.00000000,9135388.76920938,-2.48007489,-0.96957253,2.07007098,0.15401301,-0.21671816,0.09942245,0.95886829
0.50445237,0.58106625,0.79790974,-0.14079826,0.07666793,2.70227467,0.20274976,1.76457405,0.20274995,5.14661273,3.47980724,1.76457418,3.47980696,3.90165678,0.02545631,-0.05160388,-0.05173285,0.69494526,0.00000000,0.00000000,0.00000000,0.61448867,0.00000000,0.00000000,-0.00000000,0.64256796,-2.81689978,-1.35340786,-9.14673615,10291009.21005011,0.00000000,0.00000000,0.00000000,7348085.28795838,0.00000000,0.00000000,-0.00000000,9135388.76920938,-2.48108914,-0.96929817,2.06925045,0.15337957,-0.21710477,0.09951557,0.95887271
0.51927247,0.58072513,0.79802638,-0.14133860,0.07704281,2.68915424,0.20482252,1.75478068,0.20482224,5.12122350,3.46011883,1.75478068,3.46011910,3.87785864,0.01801028,-0.05326237,-0.04744609,0.69494526,0.00000000,0.00000000,0.00000000,0.61448867,0.00000000,0.00000000,-0.00000000,0.64256796,-2.84054899,-1.31310606,-9.16815186,10291009.21005011,0.00000000,0.00000000,0.00000000,7348085.28795838,0.00000000,0.00000000,-0.00000000,9135388.76920938,-2.48184167,-0.96908980,2.06861790,0.15289910,-0.21744257,0.09961183,0.95886291
0.52421250,0.58061224,0.79806507,-0.14150530,0.07718725,2.68471288,0.20548762,1.75144751,0.20548757,5.11305391,3.45366499,1.75144751,3.45366444,3.86991900,0.01484794,-0.05381930,-0.04744521,0.69494526,0.00000000,0.00000000,0.00000000,0.61448867,0.00000000,0.00000000,-0.00000000,0.64256796,-2.86454225,-1.31095827,-9.16575909,10291009.21005011,0.00000000,0.00000000,0.00000000,7348085.28795838,0.00000000,0.00000000,-0.00000000,9135388.76920938,-2.48194171,-0.96906163,2.06853216,0.15283475,-0.21749115,0.09962579,0.95886070
0.53903234,0.58030647,0.79815882,-0.14199768,0.07761157,2.67253192,0.20777941,1.74236367,0.20777931,5.09105630,3.43599238,1.74236339,3.43599238,3.84768175,0.01953689,-0.04694035,-0.03822334,0.69494526,0.00000000,0.00000000,0.00000000,0.61448867,0.00000000,0.00000000,-0.00000000,0.64256796,-2.92886043,-1.29016590,-9.27790165,10291009.21005011,0.00000000,0.00000000,0.00000000,7348085.28795838,0.00000000,0.00000000,-0.00000000,9135388.76920938,-2.48288690,-0.96878746,2.06770251,0.15223408,-0.21797582,0.09976654,0.95883156
0.54397237,0.58021426,0.79818630,-0.14214841,0.07774221,2.66887544,0.20852259,1.73966203,0.20852270,5.08445591,3.43068248,1.73966203,3.43068248,3.84098439,0.01954401,-0.04536010,-0.04200324,0.69494526,0.00000000,0.00000000,0.00000000,0.61448867,0.00000000,0.00000000,-0.00000000,0.64256796,-2.95277429,-1.29518509,-9.30177212,10291009.21005011,0.00000000,0.00000000,0.00000000,7348085.28795838,0.00000000,0.00000000,-0.00000000,9135388.76920938,-2.48299978,-0.96875346,2.06760128,0.15216575,-0.21803308,0.09978518,0.95882745
0.54891241,0.58012617,0.79821259,-0.14229189,0.07786746,2.66538159,0.20924586,1.73708396,0.20924579,5.07815806,3.42563079,1.73708410,3.42563051,3.83460869,0.02003674,-0.04114980,-0.03820286,0.69494526,0.00000000,0.00000000,0.00000000,0.61448867,0.00000000,0.00000000,-0.00000000,0.64256796,-2.98617935,-1.30030942,-9.29936790,10291009.21005011,0.00000000,0.00000000,0.00000000,7348085.28795838,0.00000000,0.00000000,-0.00000000,9135388.76920938,-2.48325226,-0.96867619,2.06737339,0.15201780,-0.21815737,0.09982894,0.95881809
0.55385244,0.58004481,0.79823470,-0.14243294,0.07798860,2.66212987,0.21000861,1.73469664,0.21000851,5.07234615,3.42091405,1.73469664,3.42091405,3.82856821,0.02160443,-0.03903151,-0.03603059,0.69494526,0.00000000,0.00000000,0.00000000,0.61448867,0.00000000,0.00000000,-0.00000000,0.64256796,-2.98376679,-1.30028677,-9.28981781,10291009.21005011,0.00000000,0.00000000,0.00000000,7348085.28795838,0.00000000,0.00000000,-0.00000000,9135388.76920938,-2.48352369,-0.96859117,2.06712636,0.15186691,-0.21828472,0.09987871,0.95880783
0.57361257,0.57977945,0.79829901,-0.14288235,0.07848010,2.65101582,0.21293614,1.72657567,0.21293590,5.05418732,3.40558554,1.72657581,3.40558526,3.80802732,0.00934235,-0.03285173,-0.02685340,0.69494526,0.00000000,0.00000000,0.00000000,0.61448867,0.00000000,0.00000000,-0.00000000,0.64256796,-2.89304280,-1.30649817,-9.22779942,10291009.21005011,0.00000000,0.00000000,0.00000000,7348085.28795838,0.00000000,0.00000000,-0.00000000,9135388.76920938,-2.48464224,-0.96821890,2.06609203,0.15133737,-0.21875430,0.10009023,0.95876248
0.58843241,0.57964373,0.79830229,-0.14319071,0.07888623,2.64440435,0.21571853,1.72180532,0.21571850,5.04560271,3.39706964,1.72180546,3.39706909,3.79481989,0.01464199,-0.03648335,-0.01601722,0.69494526,0.00000000,0.00000000,0.00000000,0.61448867,0.00000000,0.00000000,-0.00000000,0.64256796,-2.88596368,-1.31118882,-9.18961525,10291009.21005011,0.00000000,0.00000000,0.00000000,7348085.28795838,0.00000000,0.00000000,-0.00000000,9135388.76920938,-2.48624717,-0.96762466,2.06458285,0.15079803,-0.21931763,0.10037814,0.95868867
0.59337244,0.57960874,0.79829663,-0.14328657,0.07902570,2.64249853,0.21672785,1.72045167,0.21672754,5.04354147,3.39474604,1.72045167,3.39474632,3.79085257,0.01092719,-0.03652227,-0.01440411,0.69494526,0.00000000,0.00000000,0.00000000,0.61448867,0.00000000,0.00000000,-0.00000000,0.64256796,-2.86926174,-1.30624020,-9.22065830,10291009.21005011,0.00000000,0.00000000,0.00000000,7348085.28795838,0.00000000,0.00000000,-0.00000000,9135388.76920938,-2.48625048,-0.96762337,2.06457973,0.15079712,-0.21931869,0.10037872,0.95868851
0.61066242,0.57950294,0.79826450,-0.14359148,0.07957168,2.63597045,0.22035526,1.71576554,0.22035531,5.03800495,3.38735551,1.71576554,3.38735606,3.77717526,0.00883992,-0.04443517,-0.00793338,0.69494526,0.00000000,0.00000000,0.00000000,0.61448867,0.00000000,0.00000000,-0.00000000,0.64256796,-2.86451602,-1.28948152,-9.12992287,10291009.21005011,0.00000000,0.00000000,0.00000000,7348085.28795838,0.00000000,0.00000000,-0.00000000,9135388.76920938,-2.48660979,-0.96748145,2.06424018,0.15070194,-0.21943207,0.10044200,0.95867090
0.61560245,0.57948005,0.79824686,-0.14368677,0.07974275,2.63422560,0.22156118,1.71451619,0.22156116,5.03700203,3.38547546,1.71451619,3.38547574,3.77323786,0.01256877,-0.04913140,-0.00631569,0.69494526,0.00000000,0.00000000,0.00000000,0.61448867,0.00000000,0.00000000,-0.00000000,0.64256796,-2.87162113,-1.27285552,-9.12273502,10291009.21005011,0.00000000,0.00000000,0.00000000,7348085.28795838,0.00000000,0.00000000,-0.00000000,9135388.76920938,-2.48676733,-0.96741831,2.06409125,0.15066290,-0.21948096,0.10046962,0.95866295
0.62054249,0.57946074,0.79822689,-0.14377785,0.07991896,2.63256249,0.22279070,1.71332973,0.22279063,5.03628503,3.38377328,1.71332973,3.38377355,3.76943787,0.01258191,-0.05176130,-0.00523991,0.69494526,0.00000000,0.00000000,0.00000000,0.61448867,0.00000000,0.00000000,-0.00000000,0.64256796,-2.87639332,-1.28722501,-9.12274647,10291009.21005011,0.00000000,0.00000000,0.00000000,7348085.28795838,0.00000000,0.00000000,-0.00000000,9135388.76920938,-2.48707035,-0.96729539,2.06380474,0.15059240,-0.21957552,0.10052206,0.95864688
0.63536258,0.57944000,0.79812533,-0.14409898,0.08050303,2.62829068,0.22736359,1.71033983,0.22736383,5.03682805,3.37990403,1.71033997,3.37990458,3.75813320,0.00891162,-0.06390093,0.00771004,0.69494526,0.00000000,0.00000000,0.00000000,0.61448867,0.00000000,0.00000000,-0.00000000,0.64256796,-2.92175531,-1.31156504,-9.21346855,10291009.21005011,0.00000000,0.00000000,0.00000000,7348085.28795838,0.00000000,0.00000000,-0.00000000,9135388.76920938,-2.48821933,-0.96681329,2.06272007,0.15037875,-0.21997926,0.10070448,0.95856871
0.65512245,0.57945114,0.79794025,-0.14463210,0.08129764,2.62356480,0.23451534,1.70717387,0.23451551,5.03956140,3.37567849,1.70717387,3.37567849,3.74313189,0.01045496,-0.06125976,0.01312184,0.69494526,0.00000000,0.00000000,0.00000000,0.61448867,0.00000000,0.00000000,-0.00000000,0.64256796,-3.03615475,-1.38437879,-9.38296986,10291009.21005011,0.00000000,0.00000000,0.00000000,7348085.28795838,0.00000000,0.00000000,-0.00000000,9135388.76920938,-2.48931686,-0.96633279,2.06169471,0.15024773,-0.22047973,0.10086028,0.95845788
0.66006249,0.57946712,0.79788405,-0.14477617,0.08147880,2.62286137,0.23645263,1.70677242,0.23645294,5.04095828,3.37518368,1.70677215,3.37518341,3.73997160,0.01306790,-0.05597563,0.01856332,0.69494526,0.00000000,0.00000000,0.00000000,0.61448867,0.00000000,0.00000000,-0.00000000,0.64256796,-3.05296326,-1.39886427,-9.44983292,10291009.21005011,0.00000000,0.00000000,0.00000000,7348085.28795838,0.00000000,0.00000000,-0.00000000,9135388.76920938,-2.48943719,-0.96627902,2.06158338,0.15023820,-0.22054075,0.10087760,0.95844351
0.67735247,0.57955462,0.79767984,-0.14520842,0.08208382,2.62153487,0.24295841,1.70622359,0.24295851,5.04817815,3.37530531,1.70622373,3.37530558,3.73120858,0.00184410,-0.04505102,0.02613404,0.69494526,0.00000000,0.00000000,0.00000000,0.61448867,0.00000000,0.00000000,-0.00000000,0.64256796,-3.10543013,-1.40657818,-9.46413040,10291009.21005011,0.00000000,0.00000000,0.00000000,7348085.28795838,0.00000000,0.00000000,-0.00000000,9135388.76920938,-2.49048942,-0.96579869,2.06062151,0.15021464,-0.22108284,0.10104959,0.95830419
0.68229250,0.57959908,0.79760957,-0.14531732,0.08226063,2.62169112,0.24491270,1.70646310,0.24491267,5.05168557,3.37625198,1.70646282,3.37625253,3.72948091,-0.00294473,-0.04510317,0.03153024,0.69494526,0.00000000,0.00000000,0.00000000,0.61448867,0.00000000,0.00000000,-0.00000000,0.64256796,-3.11972046,-1.40911758,-9.45695972,10291009.21005011,0.00000000,0.00000000,0.00000000,7348085.28795838,0.00000000,0.00000000,-0.00000000,9135388.76920938,-2.49064512,-0.96572592,2.06048122,0.15022174,-0.22116138,0.10107924,0.95828183
0.68723254,0.57965034,0.79753488,-0.14542150,0.08243886,2.62203272,0.24690083,1.70683850,0.24690101,5.05570000,3.37751449,1.70683878,3.37751449,3.72801976,-0.00615534,-0.04303554,0.03747962,0.69494526,0.00000000,0.00000000,0.00000000,0.61448867,0.00000000,0.00000000,-0.00000000,0.64256796,-3.12449265,-1.40916777,-9.44263172,10291009.21005011,0.00000000,0.00000000,0.00000000,7348085.28795838,0.00000000,0.00000000,-0.00000000,9135388.76920938,-2.49095261,-0.96558076,2.06020593,0.15024479,-0.22131356,0.10114141,0.95823652
0.69217257,0.57970876,0.79745734,-0.14551401,0.08261491,2.62260178,0.24886881,1.70738165,0.24886898,5.06026519,3.37915655,1.70738179,3.37915655,3.72695922,-0.00934478,-0.04149137,0.04127186,0.69494526,0.00000000,0.00000000,0.00000000,0.61448867,0.00000000,0.00000000,-0.00000000,0.64256796,-3.13175678,-1.41162014,-9.42831421,10291009.21005011,0.00000000,0.00000000,0.00000000,7348085.28795838,0.00000000,0.00000000,-0.00000000,9135388.76920938,-2.49134257,-0.96539369,2.05986056,0.15029238,-0.22149930,0.10122751,0.95817705
0.70699241,0.57991409,0.79720777,-0.14578201,0.08310864,2.62538750,0.25486844,1.70984239,0.25486825,5.07587297,3.38549485,1.70984239,3.38549485,3.72532907,-0.01629082,-0.03578076,0.04613318,0.69494526,0.00000000,0.00000000,0.00000000,0.61448867,0.00000000,0.00000000,-0.00000000,0.64256796,-3.08398223,-1.43260252,-9.43313408,10291009.21005011,0.00000000,0.00000000,0.00000000,7348085.28795838,0.00000000,0.00000000,-0.00000000,9135388.76920938,-2.49219929,-0.96497052,2.05911951,0.15047010,-0.22188302,0.10144151,0.95803773
0.72181250,0.58012480,0.79695743,-0.14601977,0.08361950,2.62814606,0.26054891,1.71213760,0.26054912,5.09208138,3.39207530,1.71213774,3.39207530,3.72386681,-0.02317491,-0.03953513,0.04988836,0.69494526,0.00000000,0.00000000,0.00000000,0.61448867,0.00000000,0.00000000,-0.00000000,0.64256796,-3.12449265,-1.41394091,-9.38056183,10291009.21005011,0.00000000,0.00000000,0.00000000,7348085.28795838,0.00000000,0.00000000,-0.00000000,9135388.76920938,-2.49308260,-0.96451747,2.05838762,0.15074953,-0.22226911,0.10167880,0.95787914
0.72675254,0.58019191,0.79687816,-0.14609669,0.08377546,2.62906503,0.26234567,1.71291028,0.26234588,5.09716743,3.39417726,1.71291015,3.39417698,3.72349445,-0.02267445,-0.03374403,0.04773961,0.69494526,0.00000000,0.00000000,0.00000000,0.61448867,0.00000000,0.00000000,-0.00000000,0.64256796,-3.13880920,-1.37829268,-9.35186863,10291009.21005011,0.00000000,0.00000000,0.00000000,7348085.28795838,0.00000000,0.00000000,-0.00000000,9135388.76920938,-2.49328114,-0.96441350,2.05822814,0.15082427,-0.22235438,0.10173050,0.95784209
0.74157237,0.58039719,0.79663402,-0.14634290,0.08424417,2.63189258,0.26790571,1.71528902,0.26790578,5.11249538,3.40045627,1.71528888,3.40045600,3.72221699,-0.01575475,-0.03577444,0.04505452,0.69494526,0.00000000,0.00000000,0.00000000,0.61448867,0.00000000,0.00000000,-0.00000000,0.64256796,-3.16990757,-1.36906505,-9.25634575,10291009.21005011,0.00000000,0.00000000,0.00000000,7348085.28795838,0.00000000,0.00000000,-0.00000000,9135388.76920938,-2.49416155,-0.96394412,2.05754438,0.15119872,-0.22271083,0.10192869,0.95767916
0.74651241,0.58046079,0.79655486,-0.14643045,0.08440207,2.63267386,0.26975670,1.71596529,0.26975656,5.11718303,3.40227759,1.71596543,3.40227814,3.72154376,-0.01468662,-0.03681500,0.04451369,0.69494526,0.00000000,0.00000000,0.00000000,0.61448867,0.00000000,0.00000000,-0.00000000,0.64256796,-3.18183804,-1.36919057,-9.27305126,10291009.21005011,0.00000000,0.00000000,0.00000000,7348085.28795838,0.00000000,0.00000000,-0.00000000,9135388.76920938,-2.49441604,-0.96380579,2.05735375,0.15131593,-0.22280133,0.10197094,0.95763510
0.75145244,0.58051735,0.79648167,-0.14651500,0.08455738,2.63327588,0.27150747,1.71650955,0.27150751,5.12135870,3.40381742,1.71650927,3.40381770,3.72072176,-0.01628841,-0.03262177,0.03964906,0.69494526,0.00000000,0.00000000,0.00000000,0.61448867,0.00000000,0.00000000,-0.00000000,0.64256796,-3.17706585,-1.37152684,-9.31125641,10291009.21005011,0.00000000,0.00000000,0.00000000,7348085.28795838,0.00000000,0.00000000,-0.00000000,9135388.76920938,-2.49468161,-0.96366000,2.05715804,0.15143985,-0.22288590,0.10200477,0.95759223
0.75639247,0.58056808,0.79641253,-0.14659755,0.08471654,2.63366929,0.27317733,1.71687318,0.27317727,5.12515536,3.40507910,1.71687304,3.40507910,3.71962686,-0.01837592,-0.03684925,0.03746777,0.69494526,0.00000000,0.00000000,0.00000000,0.61448867,0.00000000,0.00000000,-0.00000000,0.64256796,-3.16513562,-1.37378812,-9.33752918,10291009.21005011,0.00000000,0.00000000,0.00000000,7348085.28795838,0.00000000,0.00000000,-0.00000000,9135388.76920938,-2.49494815,-0.96351212,2.05696487,0.15156426,-0.22295833,0.10202630,0.95755339
0.77368245,0.58073175,0.79618549,-0.14686814,0.08525884,2.63473011,0.27871868,1.71791876,0.27871861,5.13737318,3.40900653,1.71791862,3.40900653,3.71577811,-0.00784216,-0.02622301,0.03589602,0.69494526,0.00000000,0.00000000,0.00000000,0.61448867,0.00000000,0.00000000,-0.00000000,0.64256796,-3.22234821,-1.25267899,-9.27768517,10291009.21005011,0.00000000,0.00000000,0.00000000,7348085.28795838,0.00000000,0.00000000,-0.00000000,9135388.76920938,-2.49660374,-0.96255184,2.05583207,0.15231840,-0.22322643,0.10191466,0.95738313
0.78850255,0.58090341,0.79596949,-0.14712445,0.08566310,2.63694511,0.28397910,1.71996212,0.28397899,5.14937988,3.41372992,1.71996212,3.41373019,3.71404186,-0.00041478,-0.02614601,0.03538022,0.69494526,0.00000000,0.00000000,0.00000000,0.61448867,0.00000000,0.00000000,-0.00000000,0.64256796,-3.23671794,-1.24566483,-9.21082401,10291009.21005011,0.00000000,0.00000000,0.00000000,7348085.28795838,0.00000000,0.00000000,-0.00000000,9135388.76920938,-2.49676044,-0.96245671,2.05573024,0.15238763,-0.22325028,0.10188890,0.95736930
0.79344258,0.58096498,0.79589415,-0.14720905,0.08579998,2.63779121,0.28579987,1.72073495,0.28579979,5.15366526,3.41548280,1.72073495,3.41548308,3.71359525,0.00009952,-0.02561677,0.03862793,0.69494526,0.00000000,0.00000000,0.00000000,0.61448867,0.00000000,0.00000000,-0.00000000,0.64256796,-3.23191929,-1.25516343,-9.21799564,10291009.21005011,0.00000000,0.00000000,0.00000000,7348085.28795838,0.00000000,0.00000000,-0.00000000,9135388.76920938,-2.49683739,-0.96240972,2.05568052,0.15242122,-0.22326322,0.10187600,0.95736231
0.80826242,0.58117217,0.79565465,-0.14744578,0.08621077,2.64099278,0.29142431,1.72357594,0.29142434,5.16811663,3.42179839,1.72357594,3.42179783,3.71321265,-0.00366287,-0.02303166,0.04890218,0.69494526,0.00000000,0.00000000,0.00000000,0.61448867,0.00000000,0.00000000,-0.00000000,0.64256796,-3.20561934,-1.29069126,-9.30399227,10291009.21005011,0.00000000,0.00000000,0.00000000,7348085.28795838,0.00000000,0.00000000,-0.00000000,9135388.76920938,-2.49776515,-0.96182795,2.05509422,0.15280215,-0.22350824,0.10173628,0.95725926
0.81320245,0.58125389,0.79556745,-0.14750862,0.08635679,2.64238882,0.29335471,1.72476558,0.29335447,5.17397066,3.42451650,1.72476558,3.42451650,3.71357420,-0.00681518,-0.02463947,0.04673344,0.69494526,0.00000000,0.00000000,0.00000000,0.61448867,0.00000000,0.00000000,-0.00000000,0.64256796,-3.21288347,-1.29314363,-9.30399895,10291009.21005011,0.00000000,0.00000000,0.00000000,7348085.28795838,0.00000000,0.00000000,-0.00000000,9135388.76920938,-2.49784006,-0.96177954,2.05504783,0.15283238,-0.22353398,0.10172763,0.95724935
0.81814249,0.58134502,0.79547262,-0.14756897,0.08651393,2.64396910,0.29540265,1.72608682,0.29540272,5.18052506,3.42761168,1.72608710,3.42761196,3.71412913,-0.00788452,-0.02623143,0.05322075,0.69494526,0.00000000,0.00000000,0.00000000,0.61448867,0.00000000,0.00000000,-0.00000000,0.64256796,-3.23435831,-1.28382266,-9.27293968,10291009.21005011,0.00000000,0.00000000,0.00000000,7348085.28795838,0.00000000,0.00000000,-0.00000000,9135388.76920938,-2.49809629,-0.96161197,2.05489008,0.15293758,-0.22362626,0.10170270,0.95721364
0.82308252,0.58144152,0.79537469,-0.14762253,0.08667439,2.64569456,0.29747954,1.72752235,0.29747947,5.18751165,3.43097643,1.72752235,3.43097671,3.71491650,-0.01055836,-0.02468337,0.05700332,0.69494526,0.00000000,0.00000000,0.00000000,0.61448867,0.00000000,0.00000000,-0.00000000,0.64256796,-3.24626231,-1.27679086,-9.26098442,10291009.21005011,0.00000000,0.00000000,0.00000000,7348085.28795838,0.00000000,0.00000000,-0.00000000,9135388.76920938,-2.49832861,-0.96145712,2.05474832,0.15303711,-0.22371207,0.10168598,0.95717946
0.83790236,0.58178806,0.79504293,-0.14776453,0.08714923,2.65259804,0.30424623,1.73317329,0.30424626,5.21252964,3.44365636,1.73317315,3.44365608,3.71945842,-0.01272580,-0.02313398,0.06782059,0.69494526,0.00000000,0.00000000,0.00000000,0.61448867,0.00000000,0.00000000,-0.00000000,0.64256796,-3.24382305,-1.25767803,-9.28722668,10291009.21005011,0.00000000,0.00000000,0.00000000,7348085.28795838,0.00000000,0.00000000,-0.00000000,9135388.76920938,-2.49915481,-0.96087812,2.05425581,0.15346155,-0.22394303,0.10164987,0.95706132
0.85519234,0.58224261,0.79462481,-0.14789458,0.08770478,2.66215924,0.31252400,1.74093105,0.31252411,5.24544515,3.46079870,1.74093077,3.46079815,3.72680795,-0.00429438,-0.01515987,0.07166155,0.69494526,0.00000000,0.00000000,0.00000000,0.61448867,0.00000000,0.00000000,-0.00000000,0.64256796,-3.20813751,-1.28115785,-9.29205608,10291009.21005011,0.00000000,0.00000000,0.00000000,7348085.28795838,0.00000000,0.00000000,-0.00000000,9135388.76920938,-2.49982320,-0.96037070,2.05387309,0.15392498,-0.22400583,0.10163045,0.95697426
0.86013237,0.58237189,0.79450738,-0.14793286,0.08784611,2.66499954,0.31486347,1.74324828,0.31486364,5.25471240,3.46572849,1.74324828,3.46572849,3.72910357,-0.00853463,-0.01362400,0.06840642,0.69494526,0.00000000,0.00000000,0.00000000,0.61448867,0.00000000,0.00000000,-0.00000000,0.64256796,-3.20813751,-1.29070449,-9.29922771,10291009.21005011,0.00000000,0.00000000,0.00000000,7348085.28795838,0.00000000,0.00000000,-0.00000000,9135388.76920938,-2.49985751,-0.96034368,2.05385386,0.15395175,-0.22400869,0.10162991,0.95696935
0.86507241,0.58250618,0.79438895,-0.14795995,0.08798052,2.66804152,0.31718440,1.74571775,0.31718454,5.26441684,3.47099268,1.74571775,3.47099296,3.73178096,-0.00964132,-0.00837859,0.07220271,0.69494526,0.00000000,0.00000000,0.00000000,0.61448867,0.00000000,0.00000000,-0.00000000,0.64256796,-3.21765566,-1.29796696,-9.31116390,10291009.21005011,0.00000000,0.00000000,0.00000000,7348085.28795838,0.00000000,0.00000000,-0.00000000,9135388.76920938,-2.50005581,-0.96018560,2.05374357,0.15411193,-0.22402760,0.10162801,0.95693934
0.87001244,0.58264023,0.79427093,-0.14799096,0.08810644,2.67113421,0.31949834,1.74822794,0.31949830,5.27404647,3.47622806,1.74822808,3.47622806,3.73448882,-0.00487305,-0.00727707,0.07059523,0.69494526,0.00000000,0.00000000,0.00000000,0.61448867,0.00000000,0.00000000,-0.00000000,0.64256796,-3.21526957,-1.30510151,-9.29923439,10291009.21005011,0.00000000,0.00000000,0.00000000,7348085.28795838,0.00000000,0.00000000,-0.00000000,9135388.76920938,-2.50026778,-0.96001307,2.05362735,0.15429303,-0.22405180,0.10162838,0.95690445
0.87495247,0.58276153,0.79416060,-0.14803033,0.08823193,2.67384734,0.32170991,1.75044280,0.32170974,5.28270200,3.48083758,1.75044238,3.48083730,3.73665977,-0.00483683,-0.01095523,0.06408728,0.69494526,0.00000000,0.00000000,0.00000000,0.61448867,0.00000000,0.00000000,-0.00000000,0.64256796,-3.19851398,-1.30970383,-9.26343155,10291009.21005011,0.00000000,0.00000000,0.00000000,7348085.28795838,0.00000000,0.00000000,-0.00000000,9135388.76920938,-2.50043398,-0.95987520,2.05353753,0.15444177,-0.22407310,0.10163051,0.95687524
0.87989250,0.58288288,0.79405087,-0.14807124,0.08834982,2.67660868,0.32392439,1.75270226,0.32392456,5.29130379,3.48547453,1.75270240,3.48547453,3.73892602,-0.00378343,-0.00936618,0.06301184,0.69494526,0.00000000,0.00000000,0.00000000,0.61448867,0.00000000,0.00000000,-0.00000000,0.64256796,-3.17942572,-1.31427634,-9.23479748,10291009.21005011,0.00000000,0.00000000,0.00000000,7348085.28795838,0.00000000,0.00000000,-0.00000000,9135388.76920938,-2.50062467,-0.95971420,2.05343599,0.15461912,-0.22409933,0.10163506,0.95683997
0.88483254,0.58299506,0.79394621,-0.14812155,0.08846578,2.67910183,0.32607740,1.75475242,0.32607750,5.29916142,3.48962942,1.75475242,3.48962997,3.74078086,-0.00059226,-0.00933152,0.05923250,0.69494526,0.00000000,0.00000000,0.00000000,0.61448867,0.00000000,0.00000000,-0.00000000,0.64256796,-3.15556479,-1.32834506,-9.24198818,10291009.21005011,0.00000000,0.00000000,0.00000000,7348085.28795838,0.00000000,0.00000000,-0.00000000,9135388.76920938,-2.50080124,-0.95956240,2.05334349,0.15478877,-0.22412443,0.10164072,0.95680606
0.88977257,0.58309770,0.79384756,-0.14818341,0.08857074,2.68137141,0.32816087,1.75663635,0.32816104,5.30621007,3.49331471,1.75663635,3.49331443,3.74230490,0.00526401,-0.00979405,0.05438362,0.69494526,0.00000000,0.00000000,0.00000000,0.61448867,0.00000000,0.00000000,-0.00000000,0.64256796,-3.13655543,-1.34961653,-9.26829147,10291009.21005011,0.00000000,0.00000000,0.00000000,7348085.28795838,0.00000000,0.00000000,-0.00000000,9135388.76920938,-2.50097515,-0.95941015,2.05325377,0.15495875,-0.22414842,0.10164501,0.95677247
0.90953244,0.58337599,0.79354644,-0.14854327,0.08883364,2.68743654,0.33512350,1.76188959,0.33512360,5.32347626,3.50201208,1.76188931,3.50201235,3.74460495,0.01484388,-0.00337070,0.02465429,0.69494526,0.00000000,0.00000000,0.00000000,0.61448867,0.00000000,0.00000000,-0.00000000,0.64256796,-3.08875418,-1.40162694,-9.22299957,10291009.21005011,0.00000000,0.00000000,0.00000000,7348085.28795838,0.00000000,0.00000000,-0.00000000,9135388.76920938,-2.50162548,-0.95881259,2.05293016,0.15556976,-0.22420336,0.10159268,0.95666600
0.92435254,0.58340609,0.79344761,-0.14896294,0.08881603,2.68788009,0.33829459,1.76261365,0.33829445,5.32187991,3.50040520,1.76261352,3.50040548,3.74114656,0.03029340,-0.00372520,-0.00019613,0.69494526,0.00000000,0.00000000,0.00000000,0.61448867,0.00000000,0.00000000,-0.00000000,0.64256796,-3.07685018,-1.44923067,-9.20156765,10291009.21005011,0.00000000,0.00000000,0.00000000,7348085.28795838,0.00000000,0.00000000,-0.00000000,9135388.76920938,-2.50241690,-0.95801751,2.05256777,0.15609951,-0.22430754,0.10146287,0.95656905
0.92929257,0.58338445,0.79344118,-0.14911412,0.08876140,2.68739748,0.33886635,1.76235531,0.33886614,5.31890718,3.49862849,1.76235545,3.49862877,3.73941474,0.02817984,-0.00216615,-0.00669464,0.69494526,0.00000000,0.00000000,0.00000000,0.61448867,0.00000000,0.00000000,-0.00000000,0.64256796,-3.07443786,-1.46352768,-9.19919300,10291009.21005011,0.00000000,0.00000000,0.00000000,7348085.28795838,0.00000000,0.00000000,-0.00000000,9135388.76920938,-2.50241881,-0.95801551,2.05256695,0.15610030,-0.22430821,0.10146286,0.95656877
0.93423234,0.58334821,0.79344553,-0.14927033,0.08869826,2.68652755,0.33923596,1.76178002,0.33923624,5.31484566,3.49620016,1.76178029,3.49620044,3.73721941,0.02768194,-0.00374508,-0.01427673,0.69494526,0.00000000,0.00000000,0.00000000,0.61448867,0.00000000,0.00000000,-0.00000000,0.64256796,-3.07443786,-1.46114111,-9.20396614,10291009.21005011,0.00000000,0.00000000,0.00000000,7348085.28795838,0.00000000,0.00000000,-0.00000000,9135388.76920938,-2.50241986,-0.95801440,2.05256650,0.15610072,-0.22430857,0.10146285,0.95656862
0.93917237,0.58329427,0.79346550,-0.14942005,0.08862271,2.68523069,0.33930332,1.76086133,0.33930353,5.30958230,3.49310305,1.76086133,3.49310305,3.73465727,0.02824321,-0.00373436,-0.02292979,0.69494526,0.00000000,0.00000000,0.00000000,0.61448867,0.00000000,0.00000000,-0.00000000,0.64256796,-3.08164907,-1.46121156,-9.21590328,10291009.21005011,0.00000000,0.00000000,0.00000000,7348085.28795838,0.00000000,0.00000000,-0.00000000,9135388.76920938,-2.50244938,-0.95798333,2.05255388,0.15611235,-0.22431934,0.10146312,0.95656417
0.94411241,0.58322328,0.79349756,-0.14957614,0.08853927,2.68347503,0.33916985,1.75958012,0.33917002,5.30306724,3.48924903,1.75958026,3.48924903,3.73153826,0.02933684,-0.00477025,-0.03212964,0.69494526,0.00000000,0.00000000,0.00000000,0.61448867,0.00000000,0.00000000,-0.00000000,0.64256796,-3.08642125,-1.46364844,-9.21590328,10291009.21005011,0.00000000,0.00000000,0.00000000,7348085.28795838,0.00000000,0.00000000,-0.00000000,9135388.76920938,-2.50257385,-0.95785134,2.05250153,0.15615180,-0.22437366,0.10147272,0.95654397
0.94905244,0.58313966,0.79353940,-0.14973505,0.08844632,2.68140853,0.33887601,1.75805816,0.33887604,5.29562019,3.48487223,1.75805816,3.48487223,3.72809123,0.03198677,-0.00211055,-0.03861207,0.69494526,0.00000000,0.00000000,0.00000000,0.61448867,0.00000000,0.00000000,-0.00000000,0.64256796,-3.09116650,-1.46370065,-9.21350956,10291009.21005011,0.00000000,0.00000000,0.00000000,7348085.28795838,0.00000000,0.00000000,-0.00000000,9135388.76920938,-2.50269369,-0.95772267,2.05245250,0.15617304,-0.22443944,0.10149454,0.95652275
0.95399247,0.58304322,0.79359066,-0.14990070,0.08834139,2.67904116,0.33843401,1.75630223,0.33843373,5.28720015,3.47993662,1.75630223,3.47993662,3.72427684,0.03625563,-0.00311471,-0.04617939,0.69494526,0.00000000,0.00000000,0.00000000,0.61448867,0.00000000,0.00000000,-0.00000000,0.64256796,-3.08639455,-1.45171785,-9.22305107,10291009.21005011,0.00000000,0.00000000,0.00000000,7348085.28795838,0.00000000,0.00000000,-0.00000000,9135388.76920938,-2.50280723,-0.95759910,2.05240737,0.15617542,-0.22451365,0.10152576,0.95650164
0.97375234,0.58253586,0.79388821,-0.15056367,0.08788647,2.66629446,0.33513721,1.74670279,0.33513738,5.24513541,3.45520150,1.74670307,3.45520150,3.70545697,0.03790718,-0.00308756,-0.06511204,0.69494526,0.00000000,0.00000000,0.00000000,0.61448867,0.00000000,0.00000000,-0.00000000,0.64256796,-3.06974506,-1.37755322,-9.13943386,10291009.21005011,0.00000000,0.00000000,0.00000000,7348085.28795838,0.00000000,0.00000000,-0.00000000,9135388.76920938,-2.50325713,-0.95708640,2.05224429,0.15595393,-0.22489362,0.10173738,0.95642602
0.99104258,0.58198684,0.79421121,-0.15122102,0.08747596,2.65219881,0.33163543,1.73609075,0.33163522,5.20056283,3.42868303,1.73609102,3.42868303,3.68488339,0.04534065,-0.00142896,-0.07591762,0.69494526,0.00000000,0.00000000,0.00000000,0.61448867,0.00000000,0.00000000,-0.00000000,0.64256796,-3.14124823,-1.25182378,-9.07479763,10291009.21005011,0.00000000,0.00000000,0.00000000,7348085.28795838,0.00000000,0.00000000,-0.00000000,9135388.76920938,-2.50353416,-0.95673637,2.05216429,0.15558410,-0.22505018,0.10194976,0.95642681
0.99598236,0.58183211,0.79429525,-0.15141955,0.08739893,2.64799239,0.33096345,1.73296939,0.33096334,5.18799593,3.42101351,1.73296939,3.42101323,3.67851655,0.04852218,-0.00086961,-0.07753090,0.69494526,0.00000000,0.00000000,0.00000000,0.61448867,0.00000000,0.00000000,-0.00000000,0.64256796,-3.16272283,-1.23295677,-9.06760406,10291009.21005011,0.00000000,0.00000000,0.00000000,7348085.28795838,0.00000000,0.00000000,-0.00000000,9135388.76920938,-2.50359413,-0.95665479,2.05215002,0.15547641,-0.22506236,0.10200857,0.95643519
1.00092239,0.58168674,0.79437274,-0.15160081,0.08734828,2.64393614,0.33046573,1.73000206,0.33046556,5.17628234,3.41381165,1.73000206,3.41381165,3.67240737,0.05009843,0.00177605,-0.07643298,0.69494526,0.00000000,0.00000000,0.00000000,0.61448867,0.00000000,0.00000000,-0.00000000,0.64256796,-3.16993427,-1.22586751,-9.05327320,10291009.21005011,0.00000000,0.00000000,0.00000000,7348085.28795838,0.00000000,0.00000000,-0.00000000,9135388.76920938,-2.50367016,-0.95654762,2.05213366,0.15532536,-0.22506924,0.10209245,0.95644916
1.00586242,0.58154941,0.79444408,-0.15177165,0.08731706,2.64001314,0.33009283,1.72714667,0.33009286,5.16528243,3.40696330,1.72714625,3.40696302,3.66645527,0.05169049,-0.00136604,-0.07048333,0.69494526,0.00000000,0.00000000,0.00000000,0.61448867,0.00000000,0.00000000,-0.00000000,0.64256796,-3.16754818,-1.23061562,-9.03895378,10291009.21005011,0.00000000,0.00000000,0.00000000,7348085.28795838,0.00000000,0.00000000,-0.00000000,9135388.76920938,-2.50374363,-0.95643958,2.05211976,0.15516415,-0.22506959,0.10218545,0.95646532
1.01080246,0.58142579,0.79450828,-0.15192409,0.08729069,2.63649989,0.32980826,1.72462068,0.32980823,5.15542895,3.40083915,1.72462055,3.40083860,3.66114731,0.05377111,0.00180791,-0.06668782,0.69494526,0.00000000,0.00000000,0.00000000,0.61448867,0.00000000,0.00000000,-0.00000000,0.64256796,-3.16269636,-1.23534584,-9.05089092,10291009.21005011,0.00000000,0.00000000,0.00000000,7348085.28795838,0.00000000,0.00000000,-0.00000000,9135388.76920938,-2.50381334,-0.95633239,2.05210833,0.15499767,-0.22506620,0.10228578,0.95648238
1.01574249,0.58131427,0.79456729,-0.15205552,0.08726790,2.63335429,0.32956290,1.72238158,0.32956276,5.14659943,3.39538214,1.72238172,3.39538214,3.65645716,0.05267702,0.00600249,-0.06397432,0.69494526,0.00000000,0.00000000,0.00000000,0.61448867,0.00000000,0.00000000,-0.00000000,0.64256796,-3.16746855,-1.23778272,-9.07954025,10291009.21005011,0.00000000,0.00000000,0.00000000,7348085.28795838,0.00000000,0.00000000,-0.00000000,9135388.76920938,-2.50387837,-0.95622770,2.05209913,0.15483094,-0.22506088,0.10239033,0.95649945
1.02068252,0.58121294,0.79462022,-0.15217890,0.08724570,2.63050984,0.32939463,1.72037091,0.32939480,5.13857335,3.39042354,1.72037118,3.39042354,3.65217123,0.05054889,0.00492612,-0.05802762,0.69494526,0.00000000,0.00000000,0.00000000,0.61448867,0.00000000,0.00000000,-0.00000000,0.64256796,-3.16510892,-1.24730146,-9.09865379,10291009.21005011,0.00000000,0.00000000,0.00000000,7348085.28795838,0.00000000,0.00000000,-0.00000000,9135388.76920938,-2.50393751,-0.95612799,2.05209190,0.15467043,-0.22505541,0.10249471,0.95651553
1.02562255,0.58112234,0.79466742,-0.15228754,0.08722955,2.62795933,0.32928104,1.71858686,0.32928135,5.13143216,3.38601044,1.71858727,3.38601016,3.64835019,0.04997843,0.00912497,-0.05314787,0.69494526,0.00000000,0.00000000,0.00000000,0.61448867,0.00000000,0.00000000,-0.00000000,0.64256796,-3.14363408,-1.26378179,-9.10345840,10291009.21005011,0.00000000,0.00000000,0.00000000,7348085.28795838,0.00000000,0.00000000,-0.00000000,9135388.76920938,-2.50399951,-0.95601818,2.05208533,0.15449408,-0.22505019,0.10261354,0.95653252
1.04291253,0.58089095,0.79478437,-0.15256900,0.08721367,2.62136005,0.32936523,1.71408788,0.32936526,5.11333761,3.37475869,1.71408801,3.37475841,3.63836316,0.03987059,0.00796207,-0.03911023,0.69494526,0.00000000,0.00000000,0.00000000,0.61448867,0.00000000,0.00000000,-0.00000000,0.64256796,-3.05770898,-1.32254601,-9.16325283,10291009.21005011,0.00000000,0.00000000,0.00000000,7348085.28795838,0.00000000,0.00000000,-0.00000000,9135388.76920938,-2.50416276,-0.95569290,2.05207185,0.15399126,-0.22500879,0.10296386,0.95658569
1.05773238,0.58076286,0.79484683,-0.15270752,0.08725449,2.61748110,0.32973027,1.71154374,0.32973024,5.10372293,3.36862014,1.71154374,3.36861986,3.63258893,0.03188809,0.00734878,-0.02994047,0.69494526,0.00000000,0.00000000,0.00000000,0.61448867,0.00000000,0.00000000,-0.00000000,0.64256796,-3.00274944,-1.30288363,-9.09879684,10291009.21005011,0.00000000,0.00000000,0.00000000,7348085.28795838,0.00000000,0.00000000,-0.00000000,9135388.76920938,-2.50428823,-0.95538373,2.05206242,0.15356906,-0.22487453,0.10325248,0.95665402
1.06267241,0.58073032,0.79485935,-0.15275304,0.08727814,2.61640145,0.32996781,1.71084600,0.32996777,5.10124446,3.36694372,1.71084628,3.36694345,3.63084824,0.03615506,0.00213192,-0.02506431,0.69494526,0.00000000,0.00000000,0.00000000,0.61448867,0.00000000,0.00000000,-0.00000000,0.64256796,-2.99328423,-1.27652359,-9.06297302,10291009.21005011,0.00000000,0.00000000,0.00000000,7348085.28795838,0.00000000,0.00000000,-0.00000000,9135388.76920938,-2.50432435,-0.95528010,2.05205879,0.15344601,-0.22481404,0.10334107,0.95667842
1.06761244,0.58070600,0.79486614,-0.15280044,0.08729453,2.61561242,0.33029846,1.71038652,0.33029871,5.09928795,3.36563107,1.71038652,3.36563135,3.62946106,0.04303210,0.00377958,-0.02395854,0.69494526,0.00000000,0.00000000,0.00000000,0.61448867,0.00000000,0.00000000,-0.00000000,0.64256796,-2.98851228,-1.27647340,-9.04626274,10291009.21005011,0.00000000,0.00000000,0.00000000,7348085.28795838,0.00000000,0.00000000,-0.00000000,9135388.76920938,-2.50436124,-0.95516571,2.05205400,0.15332336,-0.22474492,0.10343745,0.95670391
1.07255247,0.58067995,0.79487562,-0.15284173,0.08730938,2.61479568,0.33056737,1.70990362,0.33056751,5.09726218,3.36431371,1.70990348,3.36431343,3.62812042,0.03987250,0.00164442,-0.02450951,0.69494526,0.00000000,0.00000000,0.00000000,0.61448867,0.00000000,0.00000000,-0.00000000,0.64256796,-2.97902107,-1.29546094,-9.06300449,10291009.21005011,0.00000000,0.00000000,0.00000000,7348085.28795838,0.00000000,0.00000000,-0.00000000,9135388.76920938,-2.50439307,-0.95505923,2.05204856,0.15322233,-0.22468187,0.10352738,0.95672517
1.07749250,0.58065772,0.79488462,-0.15287820,0.08731117,2.61417564,0.33081028,1.70957199,0.33081031,5.09550735,3.36323516,1.70957199,3.36323516,3.62711114,0.04515803,0.00274904,-0.02178598,0.69494526,0.00000000,0.00000000,0.00000000,0.61448867,0.00000000,0.00000000,-0.00000000,0.64256796,-2.95993233,-1.30957961,-9.09406757,10291009.21005011,0.00000000,0.00000000,0.00000000,7348085.28795838,0.00000000,0.00000000,-0.00000000,9135388.76920938,-2.50442517,-0.95494462,2.05204147,0.15312638,-0.22461851,0.10362491,0.95674486
1.08243253,0.58063352,0.79489899,-0.15290518,0.08729462,2.61364454,0.33090426,1.70930520,0.33090430,5.09366277,3.36221507,1.70930547,3.36221479,3.62637530,0.04781752,0.00330442,-0.02610670,0.69494526,0.00000000,0.00000000,0.00000000,0.61448867,0.00000000,0.00000000,-0.00000000,0.64256796,-2.94800210,-1.32377386,-9.11318874,10291009.21005011,0.00000000,0.00000000,0.00000000,7348085.28795838,0.00000000,0.00000000,-0.00000000,9135388.76920938,-2.50445480,-0.95483313,2.05203320,0.15304396,-0.22456405,0.10372069,0.95676045
1.08737257,0.58060986,0.79491609,-0.15292765,0.08725680,2.61326582,0.33089457,1.70914174,0.33089464,5.09185697,3.36132741,1.70914160,3.36132741,3.62594033,0.05204563,0.00387284,-0.02610012,0.69494526,0.00000000,0.00000000,0.00000000,0.61448867,0.00000000,0.00000000,-0.00000000,0.64256796,-2.93599224,-1.34990811,-9.10605240,10291009.21005011,0.00000000,0.00000000,0.00000000,7348085.28795838,0.00000000,0.00000000,-0.00000000,9135388.76920938,-2.50448252,-0.95472506,2.05202378,0.15297275,-0.22452036,0.10381454,0.95677191
1.09231234,0.58058476,0.79493797,-0.15294562,0.08719299,2.61302562,0.33074129,1.70907608,0.33074119,5.08994922,3.36051732,1.70907552,3.36051787,3.62581843,0.05205193,0.00440046,-0.02934593,0.69494526,0.00000000,0.00000000,0.00000000,0.61448867,0.00000000,0.00000000,-0.00000000,0.64256796,-2.92406201,-1.38796794,-9.08938313,10291009.21005011,0.00000000,0.00000000,0.00000000,7348085.28795838,0.00000000,0.00000000,-0.00000000,9135388.76920938,-2.50468078,-0.95390380,2.05190949,0.15255061,-0.22432333,0.10462717,0.95679701
1.10713244,0.58044082,0.79506296,-0.15304580,0.08683516,2.61133951,0.32896188,1.70798700,0.32896181,5.07893268,3.35544208,1.70798673,3.35544180,3.62453958,0.05793658,0.00394292,-0.04285159,0.69494526,0.00000000,0.00000000,0.00000000,0.61448867,0.00000000,0.00000000,-0.00000000,0.64256796,-2.85974360,-1.48274469,-9.19457436,10291009.21005011,0.00000000,0.00000000,0.00000000,7348085.28795838,0.00000000,0.00000000,-0.00000000,9135388.76920938,-2.50468700,-0.95387769,2.05190478,0.15253681,-0.22431432,0.10465771,0.95679798
1.12195253,0.58017129,0.79527670,-0.15329139,0.08624378,2.60738797,0.32562636,1.70502342,0.32562650,5.05774295,3.34492839,1.70502314,3.34492866,3.62018992,0.06276398,0.00400235,-0.06232092,0.69494526,0.00000000,0.00000000,0.00000000,0.61448867,0.00000000,0.00000000,-0.00000000,0.64256796,-2.79054737,-1.53929543,-9.18034649,10291009.21005011,0.00000000,0.00000000,0.00000000,7348085.28795838,0.00000000,0.00000000,-0.00000000,9135388.76920938,-2.50469152,-0.95385869,2.05190132,0.15252663,-0.22430748,0.10468007,0.95679876
1.12689257,0.58004689,0.79536939,-0.15340562,0.08602242,2.60522478,0.32425498,1.70339479,0.32425484,5.04801801,3.33985758,1.70339466,3.33985813,3.61757487,0.06647286,0.00719962,-0.07150946,0.69494526,0.00000000,0.00000000,0.00000000,0.61448867,0.00000000,0.00000000,-0.00000000,0.64256796,-2.75467658,-1.54369974,-9.16126442,10291009.21005011,0.00000000,0.00000000,0.00000000,7348085.28795838,0.00000000,0.00000000,-0.00000000,9135388.76920938,-2.50471798,-0.95374775,2.05188047,0.15246430,-0.22426250,0.10481218,0.95680477
1.13183234,0.57990688,0.79547536,-0.15351719,0.08578747,2.60272276,0.32266604,1.70150644,0.32266590,5.03722035,3.33420885,1.70150657,3.33420885,3.61465562,0.06859057,0.01195911,-0.08069180,0.69494526,0.00000000,0.00000000,0.00000000,0.61448867,0.00000000,0.00000000,-0.00000000,0.64256796,-2.73081565,-1.55776834,-9.14935589,10291009.21005011,0.00000000,0.00000000,0.00000000,7348085.28795838,0.00000000,0.00000000,-0.00000000,9135388.76920938,-2.50474785,-0.95362318,2.05185576,0.15238700,-0.22420151,0.10496104,0.95681506
1.13677238,0.57974881,0.79559338,-0.15363978,0.08554168,2.59977691,0.32090855,1.69927024,0.32090834,5.02511834,3.32776056,1.69927024,3.32776083,3.61113517,0.07498543,0.01150403,-0.09041435,0.69494526,0.00000000,0.00000000,0.00000000,0.61448867,0.00000000,0.00000000,-0.00000000,0.64256796,-2.72368407,-1.57678330,-9.14460659,10291009.21005011,0.00000000,0.00000000,0.00000000,7348085.28795838,0.00000000,0.00000000,-0.00000000,9135388.76920938,-2.50478063,-0.95348876,2.05182730,0.15229305,-0.22412741,0.10512177,0.95682974
1.14171241,0.57957584,0.79572129,-0.15377080,0.08528759,2.59646175,0.31903075,1.69675382,0.31903072,5.01192698,3.32068309,1.69675368,3.32068309,3.60715094,0.07394454,0.01149667,-0.09691160,0.69494526,0.00000000,0.00000000,0.00000000,0.61448867,0.00000000,0.00000000,-0.00000000,0.64256796,-2.69982338,-1.58846545,-9.13985729,10291009.21005011,0.00000000,0.00000000,0.00000000,7348085.28795838,0.00000000,0.00000000,-0.00000000,9135388.76920938,-2.50481218,-0.95336332,2.05179872,0.15219405,-0.22405630,0.10527290,0.95684553
1.14912258,0.57929420,0.79592860,-0.15396242,0.08491988,2.59079751,0.31596123,1.69242051,0.31596154,4.99078323,3.30914266,1.69242051,3.30914293,3.60035828,0.06974620,0.00988144,-0.10775129,0.69494526,0.00000000,0.00000000,0.00000000,0.61448867,0.00000000,0.00000000,-0.00000000,0.64256796,-2.64971590,-1.59509850,-9.11363125,10291009.21005011,0.00000000,0.00000000,0.00000000,7348085.28795838,0.00000000,0.00000000,-0.00000000,9135388.76920938,-2.50484640,-0.95323303,2.05176665,0.15207803,-0.22398625,0.10543215,0.95686284
1.15406236,0.57908392,0.79608107,-0.15409549,0.08468372,2.58632817,0.31370821,1.68897099,0.31370821,4.97520538,3.30043670,1.68897099,3.30043726,3.59490653,0.06926972,0.00356827,-0.11263931,0.69494526,0.00000000,0.00000000,0.00000000,0.61448867,0.00000000,0.00000000,-0.00000000,0.64256796,-2.63539934,-1.59494793,-9.06827736,10291009.21005011,0.00000000,0.00000000,0.00000000,7348085.28795838,0.00000000,0.00000000,-0.00000000,9135388.76920938,-2.50488269,-0.95310224,2.05173163,0.15194644,-0.22392528,0.10559542,0.95688001
1.15900239,0.57885879,0.79624218,-0.15424095,0.08444302,2.58148122,0.31136248,1.68523610,0.31136238,4.95856810,3.29106251,1.68523596,3.29106278,3.58891703,0.07406570,0.00256924,-0.12020736,0.69494526,0.00000000,0.00000000,0.00000000,0.61448867,0.00000000,0.00000000,-0.00000000,0.64256796,-2.62344217,-1.58527863,-9.02052307,10291009.21005011,0.00000000,0.00000000,0.00000000,7348085.28795838,0.00000000,0.00000000,-0.00000000,9135388.76920938,-2.50493289,-0.95293427,2.05168196,0.15175346,-0.22386349,0.10581137,0.95690124
1.17382249,0.57812172,0.79676479,-0.15470123,0.08371808,2.56531242,0.30385223,1.67274747,0.30385230,4.90462077,3.26036837,1.67274747,3.26036864,3.56878950,0.07891871,-0.00473667,-0.13482893,0.69494526,0.00000000,0.00000000,0.00000000,0.61448867,0.00000000,0.00000000,-0.00000000,0.64256796,-2.59714222,-1.50386369,-8.95121765,10291009.21005011,0.00000000,0.00000000,0.00000000,7348085.28795838,0.00000000,0.00000000,-0.00000000,9135388.76920938,-2.50507285,-0.95253684,2.05153955,0.15118030,-0.22379093,0.10635730,0.95694841
1.18864258,0.57728881,0.79734111,-0.15523197,0.08299309,2.54663357,0.29584097,1.65830580,0.29584090,4.84435176,3.22550936,1.65830538,3.22550964,3.54496254,0.08643618,-0.01043424,-0.15375966,0.69494526,0.00000000,0.00000000,0.00000000,0.61448867,0.00000000,0.00000000,-0.00000000,0.64256796,-2.55185962,-1.47951627,-8.83423996,10291009.21005011,0.00000000,0.00000000,0.00000000,7348085.28795838,0.00000000,0.00000000,-0.00000000,9135388.76920938,-2.50524561,-0.95214621,2.05136002,0.15044945,-0.22377259,0.10692249,0.95700490
1.19358236,0.57699180,0.79754269,-0.15542965,0.08275161,2.53990851,0.29312064,1.65310284,0.29312067,4.82298693,3.21303583,1.65310284,3.21303583,3.53621614,0.09017210,-0.01302377,-0.15700290,0.69494526,0.00000000,0.00000000,0.00000000,0.61448867,0.00000000,0.00000000,-0.00000000,0.64256796,-2.55185962,-1.45326388,-8.83899021,10291009.21005011,0.00000000,0.00000000,0.00000000,7348085.28795838,0.00000000,0.00000000,-0.00000000,9135388.76920938,-2.50529719,-0.95204331,2.05130579,0.15023025,-0.22376128,0.10706765,0.95702575
1.19852239,0.57668942,0.79774570,-0.15563305,0.08251935,2.53299616,0.29041805,1.64774237,0.29041824,4.80136998,3.20032570,1.64774237,3.20032570,3.52713423,0.09074462,-0.02038101,-0.15593751,0.69494526,0.00000000,0.00000000,0.00000000,0.61448867,0.00000000,0.00000000,-0.00000000,0.64256796,-2.55901790,-1.41276717,-8.83178329,10291009.21005011,0.00000000,0.00000000,0.00000000,7348085.28795838,0.00000000,0.00000000,-0.00000000,9135388.76920938,-2.50537411,-0.95189861,2.05122455,0.14990594,-0.22373723,0.10726651,0.95705996
1.20346242,0.57638204,0.79795015,-0.15584531,0.08228952,2.52596829,0.28773625,1.64229977,0.28773645,4.77945106,3.18739283,1.64229977,3.18739283,3.51782791,0.09447225,-0.02086620,-0.16079906,0.69494526,0.00000000,0.00000000,0.00000000,0.61448867,0.00000000,0.00000000,-0.00000000,0.64256796,-2.56617618,-1.38658988,-8.79116535,10291009.21005011,0.00000000,0.00000000,0.00000000,7348085.28795838,0.00000000,0.00000000,-0.00000000,9135388.76920938,-2.50543809,-0.95178518,2.05115680,0.14964092,-0.22371268,0.10741807,0.95709017
1.20840246,0.57607186,0.79815185,-0.15608016,0.08205950,2.51887558,0.28517840,1.63680785,0.28517840,4.75730218,3.17425134,1.63680771,3.17425106,3.50820160,0.10194008,-0.02709955,-0.16078726,0.69494526,0.00000000,0.00000000,0.00000000,0.61448867,0.00000000,0.00000000,-0.00000000,0.64256796,-2.56386971,-1.37939787,-8.76251793,10291009.21005011,0.00000000,0.00000000,0.00000000,7348085.28795838,0.00000000,0.00000000,-0.00000000,9135388.76920938,-2.50551970,-0.95164823,2.05107029,0.14931125,-0.22367762,0.10759605,0.95712986
1.21334249,0.57576406,0.79834878,-0.15632990,0.08182900,2.51187652,0.28276223,1.63140472,0.28276220,4.73527687,3.16117994,1.63140472,3.16117966,3.49856505,0.10724178,-0.02757136,-0.16023245,0.69494526,0.00000000,0.00000000,0.00000000,0.61448867,0.00000000,0.00000000,-0.00000000,0.64256796,-2.55671144,-1.36500311,-8.77205849,10291009.21005011,0.00000000,0.00000000,0.00000000,7348085.28795838,0.00000000,0.00000000,-0.00000000,9135388.76920938,-2.50561100,-0.95150368,2.05097353,0.14895519,-0.22363570,0.10777813,0.95717464
1.21828252,0.57545841,0.79854184,-0.15658781,0.08160143,2.50494367,0.28044602,1.62605063,0.28044611,4.71346101,3.14819359,1.62605049,3.14819387,3.48889635,0.11150079,-0.03331505,-0.15645115,0.69494526,0.00000000,0.00000000,0.00000000,0.61448867,0.00000000,0.00000000,-0.00000000,0.64256796,-2.55904436,-1.36503291,-8.80786514,10291009.21005011,0.00000000,0.00000000,0.00000000,7348085.28795838,0.00000000,0.00000000,-0.00000000,9135388.76920938,-2.50570467,-0.95136359,2.05087455,0.14860602,-0.22359332,0.10795179,0.95721925
1.22322255,0.57516217,0.79872674,-0.15685323,0.08137055,2.49831974,0.27829663,1.62095627,0.27829667,4.69225521,3.13561312,1.62095627,3.13561312,3.47955235,0.11360470,-0.03224334,-0.15319540,0.69494526,0.00000000,0.00000000,0.00000000,0.61448867,0.00000000,0.00000000,-0.00000000,0.64256796,-2.55188632,-1.36973095,-8.84607506,10291009.21005011,0.00000000,0.00000000,0.00000000,7348085.28795838,0.00000000,0.00000000,-0.00000000,9135388.76920938,-2.50580640,-0.95121976,2.05076781,0.14824754,-0.22355265,0.10813275,0.95726391
1.24051253,0.57420570,0.79930848,-0.15779796,0.08058268,2.47736023,0.27189347,1.60488527,0.27189357,4.62373737,3.09498127,1.60488541,3.09498127,3.44918430,0.12048481,-0.03796647,-0.13369875,0.69494526,0.00000000,0.00000000,0.00000000,0.61448867,0.00000000,0.00000000,-0.00000000,0.64256796,-2.49234009,-1.45262480,-9.00855160,10291009.21005011,0.00000000,0.00000000,0.00000000,7348085.28795838,0.00000000,0.00000000,-0.00000000,9135388.76920938,-2.50626087,-0.95065661,2.05030489,0.14690448,-0.22348226,0.10894217,0.95739561
1.25533238,0.57351327,0.79970938,-0.15857475,0.08000962,2.46235891,0.26787589,1.59340316,0.26787582,4.57427517,3.06547760,1.59340302,3.06547760,3.42656887,0.10772889,-0.04599954,-0.10886868,0.69494526,0.00000000,0.00000000,0.00000000,0.61448867,0.00000000,0.00000000,-0.00000000,0.64256796,-2.44212675,-1.50699914,-9.16142559,10291009.21005011,0.00000000,0.00000000,0.00000000,7348085.28795838,0.00000000,0.00000000,-0.00000000,9135388.76920938,-2.50692147,-0.94997740,2.04967684,0.14548366,-0.22354011,0.11009293,0.95746742
1.26027241,0.57331789,0.79981756,-0.15881535,0.07985106,2.45811842,0.26687000,1.59014909,0.26686990,4.56034077,3.05709884,1.59014909,3.05709940,3.41997402,0.10241506,-0.04974167,-0.09644552,0.69494526,0.00000000,0.00000000,0.00000000,0.61448867,0.00000000,0.00000000,-0.00000000,0.64256796,-2.42542410,-1.52591634,-9.20442963,10291009.21005011,0.00000000,0.00000000,0.00000000,7348085.28795838,0.00000000,0.00000000,-0.00000000,9135388.76920938,-2.50692414,-0.94997487,2.04967440,0.14547880,-0.22354042,0.11009737,0.95746758
1.27509250,0.57283455,0.80005056,-0.15956084,0.07949852,2.44736563,0.26527495,1.58188891,0.26527483,4.52558953,3.03561876,1.58188891,3.03561848,3.40182018,0.10033763,-0.07081323,-0.07053615,0.69494526,0.00000000,0.00000000,0.00000000,0.61448867,0.00000000,0.00000000,-0.00000000,0.64256796,-2.35373569,-1.63018334,-9.28335094,10291009.21005011,0.00000000,0.00000000,0.00000000,7348085.28795838,0.00000000,0.00000000,-0.00000000,9135388.76920938,-2.50763130,-0.94934545,2.04905323,0.14437828,-0.22361903,0.11115861,0.95749319
1.28003253,0.57269877,0.80010182,-0.15983196,0.07941591,2.44422612,0.26520020,1.57947859,0.26520037,4.51565820,3.02926827,1.57947859,3.02926855,3.39597364,0.10088790,-0.07870101,-0.06081305,0.69494526,0.00000000,0.00000000,0.00000000,0.61448867,0.00000000,0.00000000,-0.00000000,0.64256796,-2.34657741,-1.68022633,-9.34070396,10291009.21005011,0.00000000,0.00000000,0.00000000,7348085.28795838,0.00000000,0.00000000,-0.00000000,9135388.76920938,-2.50768327,-0.94930196,2.04900947,0.14431064,-0.22362497,0.11122622,0.95749415
1.28497257,0.57258099,0.80013764,-0.16011159,0.07934120,2.44150163,0.26537074,1.57740142,0.26537065,4.50682979,3.02356912,1.57740129,3.02356939,3.39054017,0.10088625,-0.08238700,-0.05053524,0.69494526,0.00000000,0.00000000,0.00000000,0.61448867,0.00000000,0.00000000,-0.00000000,0.64256796,-2.37287736,-1.74493504,-9.39805508,10291009.21005011,0.00000000,0.00000000,0.00000000,7348085.28795838,0.00000000,0.00000000,-0.00000000,9135388.76920938,-2.50796106,-0.94907504,2.04877992,0.14397498,-0.22366125,0.11156664,0.95749660
1.28991234,0.57247233,0.80016410,-0.16039091,0.07929423,2.43885223,0.26567810,1.57536789,0.26567793,4.49871311,3.01817665,1.57536817,3.01817693,3.38510422,0.08979737,-0.09144345,-0.04571835,0.69494526,0.00000000,0.00000000,0.00000000,0.61448867,0.00000000,0.00000000,-0.00000000,0.64256796,-2.40866852,-1.81213593,-9.45301056,10291009.21005011,0.00000000,0.00000000,0.00000000,7348085.28795838,0.00000000,0.00000000,-0.00000000,9135388.76920938,-2.50823730,-0.94885800,2.04855890,0.14368075,-0.22370811,0.11187406,0.95749398
1.30473244,0.57217139,0.80020475,-0.16126385,0.07928549,2.43072031,0.26723051,1.56903499,0.26723047,4.47647475,3.00249491,1.56903499,3.00249519,3.36784191,0.08246285,-0.11150967,-0.03171627,0.69494526,0.00000000,0.00000000,0.00000000,0.61448867,0.00000000,0.00000000,-0.00000000,0.64256796,-2.49220800,-2.00155163,-9.58923054,10291009.21005011,0.00000000,0.00000000,0.00000000,7348085.28795838,0.00000000,0.00000000,-0.00000000,9135388.76920938,-2.50941711,-0.94801291,2.04769249,0.14276209,-0.22406888,0.11292986,0.95742309
1.31955253,0.57181025,0.80026472,-0.16221160,0.07935219,2.42065156,0.26866903,1.56114079,0.26866894,4.45078964,2.98409616,1.56114079,2.98409616,3.34746282,0.07623713,-0.12523829,-0.04854534,0.69494526,0.00000000,0.00000000,0.00000000,0.61448867,0.00000000,0.00000000,-0.00000000,0.64256796,-2.62821436,-2.19868159,-9.76601124,10291009.21005011,0.00000000,0.00000000,0.00000000,7348085.28795838,0.00000000,0.00000000,-0.00000000,9135388.76920938,-2.51055384,-0.94730294,2.04696892,0.14217571,-0.22462715,0.11369663,0.95728877
1.32696246,0.57157612,0.80032843,-0.16269426,0.07940887,2.41416365,0.26894012,1.55603022,0.26893989,4.43493058,2.97287959,1.55603022,2.97287932,3.33547634,0.06884425,-0.12320444,-0.05829346,0.69494526,0.00000000,0.00000000,0.00000000,0.61448867,0.00000000,0.00000000,-0.00000000,0.64256796,-2.74762416,-2.28345656,-9.83526707,10291009.21005011,0.00000000,0.00000000,0.00000000,7348085.28795838,0.00000000,0.00000000,-0.00000000,9135388.76920938,-2.51056992,-0.94729352,2.04695942,0.14216857,-0.22463610,0.11370631,0.95728658
1.34178255,0.57098478,0.80055821,-0.16360797,0.07946965,2.39860242,0.26786128,1.54374204,0.26786100,4.39637188,2.94647111,1.54374232,2.94647111,3.30914376,0.06141955,-0.10906644,-0.08858978,0.69494526,0.00000000,0.00000000,0.00000000,0.61448867,0.00000000,0.00000000,-0.00000000,0.64256796,-2.91221094,-2.33531046,-9.95936012,10291009.21005011,0.00000000,0.00000000,0.00000000,7348085.28795838,0.00000000,0.00000000,-0.00000000,9135388.76920938,-2.51220826,-0.94641243,2.04609230,0.14151691,-0.22560637,0.11457648,0.95705118
1.34672258,0.57075047,0.80066413,-0.16390494,0.07947368,2.39264478,0.26706331,1.53902544,0.26706341,4.38146753,2.93644585,1.53902544,2.93644613,3.29956622,0.06090665,-0.10854142,-0.09942266,0.69494526,0.00000000,0.00000000,0.00000000,0.61448867,0.00000000,0.00000000,-0.00000000,0.64256796,-2.97891498,-2.32408953,-9.89483738,10291009.21005011,0.00000000,0.00000000,0.00000000,7348085.28795838,0.00000000,0.00000000,-0.00000000,9135388.76920938,-2.51226873,-0.94638266,2.04606406,0.14149413,-0.22564304,0.11460497,0.95704249
1.35166236,0.57049203,0.80078369,-0.16421534,0.07948334,2.38608761,0.26612039,1.53382912,0.26612052,4.36521368,2.92550135,1.53382912,2.92550135,3.28913647,0.06096615,-0.11221574,-0.11187923,0.69494526,0.00000000,0.00000000,0.00000000,0.61448867,0.00000000,0.00000000,-0.00000000,0.64256796,-3.04572535,-2.31285882,-9.80883408,10291009.21005011,0.00000000,0.00000000,0.00000000,7348085.28795838,0.00000000,0.00000000,-0.00000000,9135388.76920938,-2.51273185,-0.94616063,2.04585657,0.14131853,-0.22592349,0.11481603,0.95697697
1.35660239,0.57021135,0.80091709,-0.16453879,0.07948446,2.37906694,0.26503354,1.52827279,0.26503328,4.34765799,2.91376255,1.52827251,2.91376310,3.27809112,0.06259229,-0.11271971,-0.12107181,0.69494526,0.00000000,0.00000000,0.00000000,0.61448867,0.00000000,0.00000000,-0.00000000,0.64256796,-3.11497474,-2.30880809,-9.77297878,10291009.21005011,0.00000000,0.00000000,0.00000000,7348085.28795838,0.00000000,0.00000000,-0.00000000,9135388.76920938,-2.51321783,-0.94593873,2.04565561,0.14112906,-0.22621560,0.11502473,0.95691086
1.36154242,0.56990337,0.80106908,-0.16487248,0.07947059,2.37152376,0.26373009,1.52232208,0.26373011,4.32851924,2.90108871,1.52232194,2.90108899,3.26641134,0.06630600,-0.10531051,-0.13781973,0.69494526,0.00000000,0.00000000,0.00000000,0.61448867,0.00000000,0.00000000,-0.00000000,0.64256796,-3.20325971,-2.30734968,-9.80157280,10291009.21005011,0.00000000,0.00000000,0.00000000,7348085.28795838,0.00000000,0.00000000,-0.00000000,9135388.76920938,-2.51377893,-0.94569626,2.04544508,0.14089875,-0.22654849,0.11525062,0.95683887
1.37636252,0.56887907,0.80159730,-0.16590290,0.07933885,2.34729813,0.25905060,1.50326049,0.25905077,4.26559084,2.86004378,1.50326076,2.86004323,3.22956257,0.07101508,-0.08316157,-0.16264330,0.69494526,0.00000000,0.00000000,0.00000000,0.61448867,0.00000000,0.00000000,-0.00000000,0.64256796,-3.41564751,-2.29287362,-9.87066936,10291009.21005011,0.00000000,0.00000000,0.00000000,7348085.28795838,0.00000000,0.00000000,-0.00000000,9135388.76920938,-2.51539217,-0.94507816,2.04496762,0.14012960,-0.22749855,0.11581744,0.95665794
1.39118236,0.56774783,0.80219239,-0.16698848,0.07914911,2.32141853,0.25396666,1.48300703,0.25396677,4.19739161,2.81593470,1.48300717,2.81593443,3.19049687,0.07366226,-0.07471150,-0.17939158,0.69494526,0.00000000,0.00000000,0.00000000,0.61448867,0.00000000,0.00000000,-0.00000000,0.64256796,-3.53017950,-2.27259827,-9.73210239,10291009.21005011,0.00000000,0.00000000,0.00000000,7348085.28795838,0.00000000,0.00000000,-0.00000000,9135388.76920938,-2.51698279,-0.94457961,2.04468527,0.13917738,-0.22841468,0.11628976,0.95652134
1.39612239,0.56735623,0.80239981,-0.16734691,0.07909770,2.31252141,0.25224074,1.47605632,0.25224066,4.17423207,2.80094004,1.47605632,2.80093976,3.17718361,0.07044466,-0.06843344,-0.17992590,0.69494526,0.00000000,0.00000000,0.00000000,0.61448867,0.00000000,0.00000000,-0.00000000,0.64256796,-3.55881214,-2.26812601,-9.76550484,10291009.21005011,0.00000000,0.00000000,0.00000000,7348085.28795838,0.00000000,0.00000000,-0.00000000,9135388.76920938,-2.51724054,-0.94450878,2.04465763,0.13900701,-0.22855100,0.11636519,0.95650438
1.41094249,0.56618041,0.80303711,-0.16835864,0.07890843,2.28642460,0.24685412,1.45568623,0.24685419,4.10578959,2.75685506,1.45568637,2.75685506,3.13854512,0.06825252,-0.05478038,-0.18422709,0.69494526,0.00000000,0.00000000,0.00000000,0.61448867,0.00000000,0.00000000,-0.00000000,0.64256796,-3.68766046,-2.26232076,-9.76541996,10291009.21005011,0.00000000,0.00000000,0.00000000,7348085.28795838,0.00000000,0.00000000,-0.00000000,9135388.76920938,-2.51926545,-0.94404641,2.04462491,0.13755197,-0.22940349,0.11701261,0.95643167
1.41588252,0.56579238,0.80324715,-0.16868867,0.07884901,2.27792228,0.24513822,1.44905467,0.24513822,4.08354430,2.74250924,1.44905467,2.74250924,3.12593916,0.07088477,-0.05317707,-0.18150971,0.69494526,0.00000000,0.00000000,0.00000000,0.61448867,0.00000000,0.00000000,-0.00000000,0.64256796,-3.74492669,-2.26292276,-9.72241020,10291009.21005011,0.00000000,0.00000000,0.00000000,7348085.28795838,0.00000000,0.00000000,-0.00000000,9135388.76920938,-2.51938084,-0.94402503,2.04463320,0.13746433,-0.22943904,0.11705356,0.95643073
1.42329244,0.56522620,0.80355835,-0.16913725,0.07877801,2.26555472,0.24257340,1.43941215,0.24257355,4.05156272,2.72189770,1.43941229,2.72189770,3.10785430,0.05704140,-0.04543306,-0.17665810,0.69494526,0.00000000,0.00000000,0.00000000,0.61448867,0.00000000,0.00000000,-0.00000000,0.64256796,-3.80457830,-2.27070951,-9.70805645,10291009.21005011,0.00000000,0.00000000,0.00000000,7348085.28795838,0.00000000,0.00000000,-0.00000000,9135388.76920938,-2.51992044,-0.94393225,2.04468723,0.13704999,-0.22958479,0.11725243,0.95643086
1.42576258,0.56504422,0.80365825,-0.16927908,0.07875948,2.26157880,0.24175921,1.43630686,0.24175931,4.04139146,2.71531449,1.43630659,2.71531449,3.10203879,0.05491568,-0.04545650,-0.17178668,0.69494526,0.00000000,0.00000000,0.00000000,0.61448867,0.00000000,0.00000000,-0.00000000,0.64256796,-3.82136035,-2.27087784,-9.69611645,10291009.21005011,0.00000000,0.00000000,0.00000000,7348085.28795838,0.00000000,0.00000000,-0.00000000,9135388.76920938,-2.52046893,-0.94385014,2.04476822,0.13662183,-0.22970095,0.11746646,0.95643796
1.44305257,0.56388003,0.80429900,-0.17015043,0.07868452,2.23624291,0.23664580,1.41652993,0.23664601,3.97746320,2.67379165,1.41652993,2.67379193,3.06516759,0.04150394,-0.03193421,-0.14472808,0.69494526,0.00000000,0.00000000,0.00000000,0.61448867,0.00000000,0.00000000,-0.00000000,0.64256796,-3.92876029,-2.20279312,-9.66256142,10291009.21005011,0.00000000,0.00000000,0.00000000,7348085.28795838,0.00000000,0.00000000,-0.00000000,9135388.76920938,-2.52253930,-0.94365487,2.04531858,0.13494896,-0.22994677,0.11835355,0.95650703
1.45787241,0.56305003,0.80475700,-0.17075539,0.07863441,2.21850907,0.23315167,1.40272976,0.23315146,3.93278561,2.64479111,1.40272976,2.64479111,3.03942595,0.03233336,-0.01784089,-0.12307704,0.69494526,0.00000000,0.00000000,0.00000000,0.61448867,0.00000000,0.00000000,-0.00000000,0.64256796,-3.98833251,-2.24877286,-9.65778542,10291009.21005011,0.00000000,0.00000000,0.00000000,7348085.28795838,0.00000000,0.00000000,-0.00000000,9135388.76920938,-2.52401059,-0.94363394,2.04595837,0.13372719,-0.23005964,0.11899976,0.95657130
1.46281244,0.56280386,0.80489433,-0.17092948,0.07861328,2.21333728,0.23211001,1.39871229,0.23210976,3.91965714,2.63630734,1.39871229,2.63630734,3.03195813,0.02910651,-0.01367039,-0.11604001,0.69494526,0.00000000,0.00000000,0.00000000,0.61448867,0.00000000,0.00000000,-0.00000000,0.64256796,-4.00264931,-2.27517557,-9.66735268,10291009.21005011,0.00000000,0.00000000,0.00000000,7348085.28795838,0.00000000,0.00000000,-0.00000000,9135388.76920938,-2.52407115,-0.94363536,2.04598938,0.13367719,-0.23006503,0.11902477,0.95657388
1.47763253,0.56211925,0.80529535,-0.17134725,0.07849491,2.19940509,0.22881442,1.38790825,0.22881442,3.88339517,2.61324255,1.38790825,2.61324255,3.01241046,0.01938031,0.01199498,-0.11005590,0.69494526,0.00000000,0.00000000,0.00000000,0.61448867,0.00000000,0.00000000,-0.00000000,0.64256796,-4.01450014,-2.36838531,-9.75098991,10291009.21005011,0.00000000,0.00000000,0.00000000,7348085.28795838,0.00000000,0.00000000,-0.00000000,9135388.76920938,-2.52590706,-0.94377542,2.04712715,0.13220712,-0.23021689,0.11969546,0.95665796
1.48257257,0.56190240,0.80543315,-0.17144796,0.07841381,2.19525754,0.22754131,1.38470100,0.22754121,3.87188244,2.60616730,1.38470100,2.60616730,3.00688861,0.01611708,0.02510868,-0.10949070,0.69494526,0.00000000,0.00000000,0.00000000,0.61448867,0.00000000,0.00000000,-0.00000000,0.64256796,-3.99302554,-2.39441180,-9.76535320,10291009.21005011,0.00000000,0.00000000,0.00000000,7348085.28795838,0.00000000,0.00000000,-0.00000000,9135388.76920938,-2.52603048,-0.94379226,2.04721881,0.13211286,-0.23022159,0.11973468,0.95666494
1.48751234,0.56168944,0.80557418,-0.17152986,0.07831170,2.19131432,0.22616023,1.38164863,0.22616023,3.86056891,2.59932200,1.38164863,2.59932172,3.00178345,0.01552497,0.03562111,-0.11054819,0.69494526,0.00000000,0.00000000,0.00000000,0.61448867,0.00000000,0.00000000,-0.00000000,0.64256796,-3.97870946,-2.41574073,-9.73673248,10291009.21005011,0.00000000,0.00000000,0.00000000,7348085.28795838,0.00000000,0.00000000,-0.00000000,9135388.76920938,-2.52650462,-0.94386694,2.04759128,0.13175672,-0.23022873,0.11987767,0.95669443
1.49245238,0.56147653,0.80571985,-0.17159830,0.07818963,2.18748552,0.22467532,1.37868394,0.22467546,3.84922657,2.59256674,1.37868394,2.59256701,2.99695506,0.01284525,0.04295787,-0.11106723,0.69494526,0.00000000,0.00000000,0.00000000,0.61448867,0.00000000,0.00000000,-0.00000000,0.64256796,-3.97406912,-2.43477082,-9.67230415,10291009.21005011,0.00000000,0.00000000,0.00000000,7348085.28795838,0.00000000,0.00000000,-0.00000000,9135388.76920938,-2.52693706,-0.94394992,2.04796088,0.13143886,-0.23022010,0.11999576,0.95672543
1.50974236,0.56073171,0.80625957,-0.17171541,0.07771260,2.17439888,0.21876033,1.36847943,0.21876066,3.80995281,2.56951191,1.36847943,2.56951164,2.98137665,0.00055666,0.05808287,-0.11269361,0.69494526,0.00000000,0.00000000,0.00000000,0.61448867,0.00000000,0.00000000,-0.00000000,0.64256796,-3.86900258,-2.45038080,-9.49092484,10291009.21005011,0.00000000,0.00000000,0.00000000,7348085.28795838,0.00000000,0.00000000,-0.00000000,9135388.76920938,-2.52837216,-0.94434780,2.04942833,0.13040754,-0.23008633,0.12027264,0.95686396
1.52456246,0.56005633,0.80677128,-0.17171995,0.07726163,2.16268723,0.21283149,1.35926080,0.21283159,3.77482285,2.54903946,1.35926066,2.54903946,2.96812683,-0.01216940,0.06426867,-0.12299400,0.69494526,0.00000000,0.00000000,0.00000000,0.61448867,0.00000000,0.00000000,-0.00000000,0.64256796,-3.74972486,-2.48014998,-9.42179108,10291009.21005011,0.00000000,0.00000000,0.00000000,7348085.28795838,0.00000000,0.00000000,-0.00000000,9135388.76920938,-2.52958785,-0.94487998,2.05103618,0.12952242,-0.22983100,0.12036193,0.95703430
1.52950249,0.55981541,0.80695653,-0.17170134,0.07711367,2.15845131,0.21063429,1.35589813,0.21063436,3.76248286,2.54180296,1.35589827,2.54180296,2.96342450,-0.01747055,0.06526746,-0.12679908,0.69494526,0.00000000,0.00000000,0.00000000,0.61448867,0.00000000,0.00000000,-0.00000000,0.64256796,-3.72103906,-2.47985363,-9.37644196,10291009.21005011,0.00000000,0.00000000,0.00000000,7348085.28795838,0.00000000,0.00000000,-0.00000000,9135388.76920938,-2.52972015,-0.94495203,2.05123622,0.12942316,-0.22979333,0.12036580,0.95705629
1.54432258,0.55900377,0.80757642,-0.17165026,0.07662477,2.14420038,0.20329896,1.34455025,0.20329903,3.72106225,2.51735902,1.34455025,2.51735958,2.94738232,-0.01051232,0.07008791,-0.15598303,0.69494526,0.00000000,0.00000000,0.00000000,0.61448867,0.00000000,0.00000000,-0.00000000,0.64256796,-3.64956284,-2.50057077,-9.27623940,10291009.21005011,0.00000000,0.00000000,0.00000000,7348085.28795838,0.00000000,0.00000000,-0.00000000,9135388.76920938,-2.53099105,-0.94583910,2.05348737,0.12840233,-0.22925602,0.12039232,0.95731928
1.54926236,0.55869067,0.80781561,-0.17163095,0.07642986,2.13876109,0.20047581,1.34021389,0.20047581,3.70507963,2.50795657,1.34021417,2.50795657,2.94125845,-0.01210302,0.07480965,-0.16571703,0.69494526,0.00000000,0.00000000,0.00000000,0.61448867,0.00000000,0.00000000,-0.00000000,0.64256796,-3.63047409,-2.50991654,-9.30968666,10291009.21005011,0.00000000,0.00000000,0.00000000,7348085.28795838,0.00000000,0.00000000,-0.00000000,9135388.76920938,-2.53101121,-0.94585665,2.05352880,0.12838464,-0.22924408,0.12039307,0.95732442
1.55420239,0.55835348,0.80807370,-0.17160928,0.07621402,2.13295154,0.19742547,1.33557916,0.19742554,3.68787301,2.49784377,1.33557929,2.49784349,2.93471845,-0.01052228,0.08114268,-0.17977658,0.69494526,0.00000000,0.00000000,0.00000000,0.61448867,0.00000000,0.00000000,-0.00000000,0.64256796,-3.61843777,-2.51457381,-9.32162476,10291009.21005011,0.00000000,0.00000000,0.00000000,7348085.28795838,0.00000000,0.00000000,-0.00000000,9135388.76920938,-2.53129411,-0.94611761,2.05413411,0.12812807,-0.22906331,0.12040558,0.95740049
1.55914242,0.55799180,0.80834973,-0.17158970,0.07597914,2.12675453,0.19417702,1.33062969,0.19417691,3.66942467,2.48699595,1.33062942,2.48699623,2.92769640,-0.00785862,0.08591052,-0.19436930,0.69494526,0.00000000,0.00000000,0.00000000,0.61448867,0.00000000,0.00000000,-0.00000000,0.64256796,-3.60412121,-2.50726366,-9.28103828,10291009.21005011,0.00000000,0.00000000,0.00000000,7348085.28795838,0.00000000,0.00000000,-0.00000000,9135388.76920938,-2.53157153,-0.94640321,2.05477516,0.12785751,-0.22886150,0.12042104,0.95748297
1.57396252,0.55675745,0.80927515,-0.17156903,0.07522632,2.10552615,0.18355335,1.31362463,0.18355323,3.60698139,2.44992195,1.31362477,2.44992195,2.90295879,0.00501451,0.07922436,-0.22897995,0.69494526,0.00000000,0.00000000,0.00000000,0.61448867,0.00000000,0.00000000,-0.00000000,0.64256796,-3.61613107,-2.41907787,-9.06846619,10291009.21005011,0.00000000,0.00000000,0.00000000,7348085.28795838,0.00000000,0.00000000,-0.00000000,9135388.76920938,-2.53243790,-0.94755436,2.05718319,0.12680256,-0.22805541,0.12048965,0.95780691
1.58878236,0.55536073,0.81030703,-0.17160599,0.07435264,2.08196322,0.17211666,1.29477457,0.17211652,3.53669294,2.40818052,1.29477443,2.40818052,2.87495672,0.01607120,0.10091110,-0.25434155,0.69494526,0.00000000,0.00000000,0.00000000,0.61448867,0.00000000,0.00000000,-0.00000000,0.64256796,-3.58736539,-2.37344408,-9.22600365,10291009.21005011,0.00000000,0.00000000,0.00000000,7348085.28795838,0.00000000,0.00000000,-0.00000000,9135388.76920938,-2.53316568,-0.94901080,2.05994873,0.12540664,-0.22704475,0.12062567,0.95821360
1.59372239,0.55487812,0.81066591,-0.17161523,0.07402254,2.07402773,0.16815655,1.28841978,0.16815640,3.51239445,2.39385271,1.28841978,2.39385327,2.86554734,0.01871527,0.10462200,-0.25810862,0.69494526,0.00000000,0.00000000,0.00000000,0.61448867,0.00000000,0.00000000,-0.00000000,0.64256796,-3.59219050,-2.35916972,-9.19734192,10291009.21005011,0.00000000,0.00000000,0.00000000,7348085.28795838,0.00000000,0.00000000,-0.00000000,9135388.76920938,-2.53316743,-0.94901513,2.05995660,0.12540228,-0.22704171,0.12062620,0.95821482
1.59866242,0.55439109,0.81102693,-0.17162825,0.07368600,2.06607410,0.16420864,1.28204657,0.16420881,3.48794524,2.37943209,1.28204657,2.37943237,2.85606177,0.01976866,0.10621104,-0.25918404,0.69494526,0.00000000,0.00000000,0.00000000,0.61448867,0.00000000,0.00000000,-0.00000000,0.64256796,-3.58026028,-2.35188460,-9.11377907,10291009.21005011,0.00000000,0.00000000,0.00000000,7348085.28795838,0.00000000,0.00000000,-0.00000000,9135388.76920938,-2.53330113,-0.94936231,2.06058223,0.12504914,-0.22679840,0.12067109,0.95831294
1.60360246,0.55389512,0.81139010,-0.17165092,0.07336355,2.05792598,0.16030559,1.27550200,0.16030565,3.46328770,2.36475631,1.27550200,2.36475658,2.84616368,0.02196246,0.09676934,-0.26135991,0.69494526,0.00000000,0.00000000,0.00000000,0.61448867,0.00000000,0.00000000,-0.00000000,0.64256796,-3.57079554,-2.35893679,-9.06843662,10291009.21005011,0.00000000,0.00000000,0.00000000,7348085.28795838,0.00000000,0.00000000,-0.00000000,9135388.76920938,-2.53345572,-0.94980750,2.06136912,0.12458767,-0.22648788,0.12073409,0.95843854
1.60854249,0.55340028,0.81175178,-0.17167057,0.07305100,2.04979823,0.15645943,1.26897337,0.15645957,3.43884459,2.35019411,1.26897337,2.35019411,2.83630160,0.01613244,0.09670954,-0.26137634,0.69494526,0.00000000,0.00000000,0.00000000,0.61448867,0.00000000,0.00000000,-0.00000000,0.64256796,-3.56363702,-2.37079453,-9.12336445,10291009.21005011,0.00000000,0.00000000,0.00000000,7348085.28795838,0.00000000,0.00000000,-0.00000000,9135388.76920938,-2.53360673,-0.95029733,2.06221686,0.12407218,-0.22615105,0.12080865,0.95857554
1.61348252,0.55290729,0.81211418,-0.17167440,0.07274602,2.04170081,0.15259735,1.26245277,0.15259742,3.41467770,2.33577515,1.26245318,2.33577515,2.82654121,0.00975118,0.09769423,-0.26031819,0.69494526,0.00000000,0.00000000,0.00000000,0.61448867,0.00000000,0.00000000,-0.00000000,0.64256796,-3.56353092,-2.38751030,-9.24752140,10291009.21005011,0.00000000,0.00000000,0.00000000,7348085.28795838,0.00000000,0.00000000,-0.00000000,9135388.76920938,-2.53374217,-0.95079484,2.06306030,0.12354413,-0.22581495,0.12088829,0.95871293
1.62089244,0.55217934,0.81265831,-0.17164449,0.07226810,2.02991699,0.14671912,1.25294794,0.14671909,3.37900972,2.31464498,1.25294808,2.31464512,2.81262398,0.00382344,0.11183101,-0.25705186,0.69494526,0.00000000,0.00000000,0.00000000,0.61448867,0.00000000,0.00000000,-0.00000000,0.64256796,-3.53489828,-2.40391564,-9.40513134,10291009.21005011,0.00000000,0.00000000,0.00000000,7348085.28795838,0.00000000,0.00000000,-0.00000000,9135388.76920938,-2.53386773,-0.95131993,2.06393305,0.12298608,-0.22546475,0.12097515,0.95885613
1.62583247,0.55169857,0.81302428,-0.17159744,0.07193433,2.02223861,0.14269652,1.24673667,0.14269656,3.35546396,2.30078483,1.24673653,2.30078483,2.80374875,0.00110168,0.12284641,-0.25594930,0.69494526,0.00000000,0.00000000,0.00000000,0.61448867,0.00000000,0.00000000,-0.00000000,0.64256796,-3.51580977,-2.40848804,-9.42424774,10291009.21005011,0.00000000,0.00000000,0.00000000,7348085.28795838,0.00000000,0.00000000,-0.00000000,9135388.76920938,-2.53397907,-0.95185418,2.06480420,0.12242119,-0.22511120,0.12106517,0.95900012
1.64065257,0.55030483,0.81410271,-0.17137507,0.07093620,2.00021357,0.13069609,1.22882095,0.13069612,3.28752682,2.26091874,1.22882109,2.26091874,2.77870638,-0.01536157,0.12530351,-0.24732330,0.69494526,0.00000000,0.00000000,0.00000000,0.61448867,0.00000000,0.00000000,-0.00000000,0.64256796,-3.43714857,-2.40049338,-9.28820705,10291009.21005011,0.00000000,0.00000000,0.00000000,7348085.28795838,0.00000000,0.00000000,-0.00000000,9135388.76920938,-2.53428948,-0.95400158,2.06815847,0.12023230,-0.22370048,0.12141665,0.95956255
1.65547241,0.54896688,0.81516093,-0.17103890,0.06995502,1.97928620,0.11874864,1.21168013,0.11874864,3.22278321,2.22305113,1.21167999,2.22305127,2.75557815,-0.02080044,0.14154449,-0.23647808,0.69494526,0.00000000,0.00000000,0.00000000,0.61448867,0.00000000,0.00000000,-0.00000000,0.64256796,-3.37028527,-2.39024925,-9.25242043,10291009.21005011,0.00000000,0.00000000,0.00000000,7348085.28795838,0.00000000,0.00000000,-0.00000000,9135388.76920938,-2.53442710,-0.95599024,2.07108922,0.11837577,-0.22244932,0.12164852,0.96005475
1.66041244,0.54854286,0.81550491,-0.17089316,0.06962750,1.97272765,0.11478408,1.20627894,0.11478436,3.20223761,2.21114153,1.20627922,2.21114112,2.74859127,-0.03249593,0.14405070,-0.23001011,0.69494526,0.00000000,0.00000000,0.00000000,0.61448867,0.00000000,0.00000000,-0.00000000,0.64256796,-3.34881043,-2.38763690,-9.24288177,10291009.21005011,0.00000000,0.00000000,0.00000000,7348085.28795838,0.00000000,0.00000000,-0.00000000,9135388.76920938,-2.53443048,-0.95607497,2.07121084,0.11830044,-0.22239796,0.12165528,0.96007507
1.66535247,0.54812223,0.81584799,-0.17073195,0.06931563,1.96617228,0.11081480,1.20086016,0.11081485,3.18202309,2.19936145,1.20086002,2.19936145,2.74163543,-0.03989796,0.14081916,-0.22949773,0.69494526,0.00000000,0.00000000,0.00000000,0.61448867,0.00000000,0.00000000,-0.00000000,0.64256796,-3.34403849,-2.36849427,-9.18079090,10291009.21005011,0.00000000,0.00000000,0.00000000,7348085.28795838,0.00000000,0.00000000,-0.00000000,9135388.76920938,-2.53445099,-0.95673493,2.07215000,0.11772315,-0.22200404,0.12169808,0.96023177
1.67029250,0.54771239,0.81618440,-0.17055783,0.06902264,1.95973174,0.10691382,1.19551133,0.10691391,3.16246184,2.18792893,1.19551147,2.18792879,2.73485496,-0.04414707,0.13761522,-0.21977623,0.69494526,0.00000000,0.00000000,0.00000000,0.61448867,0.00000000,0.00000000,-0.00000000,0.64256796,-3.33449364,-2.35168767,-9.10438061,10291009.21005011,0.00000000,0.00000000,0.00000000,7348085.28795838,0.00000000,0.00000000,-0.00000000,9135388.76920938,-2.53446223,-0.95741763,2.07310669,0.11714279,-0.22160870,0.12172306,0.96039088
1.67523253,0.54730976,0.81651568,-0.17038165,0.06873328,1.95343015,0.10307422,1.19027804,0.10307420,3.14326380,2.17671001,1.19027804,2.17671029,2.72824875,-0.04626240,0.13864618,-0.21868603,0.69494526,0.00000000,0.00000000,0.00000000,0.61448867,0.00000000,0.00000000,-0.00000000,0.64256796,-3.30599332,-2.34421492,-9.07814121,10291009.21005011,0.00000000,0.00000000,0.00000000,7348085.28795838,0.00000000,0.00000000,-0.00000000,9135388.76920938,-2.53446435,-0.95812711,2.07408582,0.11655688,-0.22121111,0.12172767,0.96055323
1.68017257,0.54691893,0.81684166,-0.17019019,0.06844477,1.94733399,0.09925535,1.18519989,0.09925547,3.12458745,2.16585389,1.18520003,2.16585417,2.72200880,-0.05003231,0.14491470,-0.21164520,0.69494526,0.00000000,0.00000000,0.00000000,0.61448867,0.00000000,0.00000000,-0.00000000,0.64256796,-3.25588536,-2.32936883,-9.11158276,10291009.21005011,0.00000000,0.00000000,0.00000000,7348085.28795838,0.00000000,0.00000000,-0.00000000,9135388.76920938,-2.53445768,-0.95883322,2.07504595,0.11599157,-0.22082617,0.12171319,0.96071206
1.68511234,0.54653281,0.81716764,-0.16997896,0.06816182,1.94129573,0.09539233,1.18015235,0.09539232,3.10618093,2.15515956,1.18015249,2.15515942,2.71593535,-0.05904887,0.14587402,-0.21166797,0.69494526,0.00000000,0.00000000,0.00000000,0.61448867,0.00000000,0.00000000,-0.00000000,0.64256796,-3.20577812,-2.31452274,-9.17128754,10291009.21005011,0.00000000,0.00000000,0.00000000,7348085.28795838,0.00000000,0.00000000,-0.00000000,9135388.76920938,-2.53444298,-0.95953998,2.07599347,0.11544422,-0.22044853,0.12168270,0.96086856
1.69252252,0.54594594,0.81766671,-0.16964278,0.06771635,1.93218154,0.08943319,1.17250915,0.08943312,3.07810600,2.13888244,1.17250901,2.13888244,2.70686702,-0.05804694,0.15482456,-0.21272940,0.69494526,0.00000000,0.00000000,0.00000000,0.61448867,0.00000000,0.00000000,-0.00000000,0.64256796,-3.14607334,-2.30674028,-9.15937519,10291009.21005011,0.00000000,0.00000000,0.00000000,7348085.28795838,0.00000000,0.00000000,-0.00000000,9135388.76920938,-2.53442081,-0.96024970,2.07693213,0.11491384,-0.22007422,0.12163868,0.96102351
1.69746255,0.54555535,0.81800014,-0.16941428,0.06740868,1.92616711,0.08543480,1.16745081,0.08543483,3.05935235,2.12803463,1.16745095,2.12803435,2.70090495,-0.05858643,0.15639697,-0.21381154,0.69494526,0.00000000,0.00000000,0.00000000,0.61448867,0.00000000,0.00000000,-0.00000000,0.64256796,-3.10071087,-2.28717375,-9.06387997,10291009.21005011,0.00000000,0.00000000,0.00000000,7348085.28795838,0.00000000,0.00000000,-0.00000000,9135388.76920938,-2.53438834,-0.96103253,2.07795329,0.11435110,-0.21966439,0.12157763,0.96119210
1.71228239,0.54435354,0.81901288,-0.16874741,0.06649359,1.90765463,0.07346823,1.15182738,0.07346816,3.00214777,2.09465839,1.15182731,2.09465866,2.68201942,-0.06059575,0.14270772,-0.22359545,0.69494526,0.00000000,0.00000000,0.00000000,0.61448867,0.00000000,0.00000000,-0.00000000,0.64256796,-2.97899461,-2.21191263,-8.78931808,10291009.21005011,0.00000000,0.00000000,0.00000000,7348085.28795838,0.00000000,0.00000000,-0.00000000,9135388.76920938,-2.53423309,-0.96353144,2.08112106,0.11269212,-0.21835601,0.12133153,0.96171711
1.72710249,0.54304564,0.82006454,-0.16819721,0.06561481,1.88744647,0.06177288,1.13476954,0.06177276,2.94155988,2.05849476,1.13476940,2.05849449,2.65970127,-0.04937233,0.13441536,-0.23657145,0.69494526,0.00000000,0.00000000,0.00000000,0.61448867,0.00000000,0.00000000,-0.00000000,0.64256796,-2.88596368,-2.14410758,-8.83706284,10291009.21005011,0.00000000,0.00000000,0.00000000,7348085.28795838,0.00000000,0.00000000,-0.00000000,9135388.76920938,-2.53402775,-0.96585115,2.08394778,0.11129167,-0.21713530,0.12107909,0.96218828
1.73204252,0.54258871,0.82042742,-0.16802782,0.06529107,1.88052720,0.05780076,1.12892605,0.05780086,2.92039203,2.04586346,1.12892632,2.04586332,2.65191041,-0.04619279,0.13760667,-0.24304884,0.69494526,0.00000000,0.00000000,0.00000000,0.61448867,0.00000000,0.00000000,-0.00000000,0.64256796,-2.84540057,-2.13890791,-8.90632057,10291009.21005011,0.00000000,0.00000000,0.00000000,7348085.28795838,0.00000000,0.00000000,-0.00000000,9135388.76920938,-2.53395861,-0.96653013,2.08475601,0.11089399,-0.21678644,0.12100299,0.96232242
1.73698255,0.54211634,0.82079989,-0.16786364,0.06495552,1.87341676,0.05376327,1.12291383,0.05376340,2.89858475,2.03281644,1.12291383,2.03281658,2.64379401,-0.04404393,0.13658075,-0.25062216,0.69494526,0.00000000,0.00000000,0.00000000,0.61448867,0.00000000,0.00000000,-0.00000000,0.64256796,-2.82153964,-2.13149738,-8.91110325,10291009.21005011,0.00000000,0.00000000,0.00000000,7348085.28795838,0.00000000,0.00000000,-0.00000000,9135388.76920938,-2.53386375,-0.96741130,2.08579260,0.11038004,-0.21634454,0.12090298,0.96249351
1.74192258,0.54162860,0.82117873,-0.16771573,0.06461707,1.86610505,0.04974789,1.11672922,0.04974798,2.87626799,2.01937670,1.11672929,2.01937643,2.63523600,-0.03869957,0.13190550,-0.25765899,0.69494526,0.00000000,0.00000000,0.00000000,0.61448867,0.00000000,0.00000000,-0.00000000,0.64256796,-2.81671453,-2.12429214,-8.87289429,10291009.21005011,0.00000000,0.00000000,0.00000000,7348085.28795838,0.00000000,0.00000000,-0.00000000,9135388.76920938,-2.53376552,-0.96827806,2.08679923,0.10987431,-0.21592250,0.12080382,0.96265858
1.74686236,0.54113007,0.82156116,-0.16758418,0.06427289,1.85868391,0.04577774,1.11045401,0.04577781,2.85359909,2.00567516,1.11045401,2.00567502,2.62638736,-0.03231047,0.12934374,-0.26197714,0.69494526,0.00000000,0.00000000,0.00000000,0.61448867,0.00000000,0.00000000,-0.00000000,0.64256796,-2.80717015,-2.12657857,-8.86096478,10291009.21005011,0.00000000,0.00000000,0.00000000,7348085.28795838,0.00000000,0.00000000,-0.00000000,9135388.76920938,-2.53365958,-0.96917467,2.08782758,0.10934880,-0.21549870,0.12070127,0.96282623
1.75180239,0.54061466,0.82195324,-0.16746503,0.06390716,1.85111440,0.04176482,1.10406286,0.04176474,2.83018937,1.99152757,1.10406307,1.99152784,2.61725586,-0.02594462,0.13309528,-0.27169134,0.69494526,0.00000000,0.00000000,0.00000000,0.61448867,0.00000000,0.00000000,-0.00000000,0.64256796,-2.78092337,-2.12868905,-8.91828251,10291009.21005011,0.00000000,0.00000000,0.00000000,7348085.28795838,0.00000000,0.00000000,-0.00000000,9135388.76920938,-2.53356595,-0.96994263,2.08869835,0.10889527,-0.21514573,0.12061405,0.96296749
1.75674242,0.54008132,0.82235777,-0.16734532,0.06352478,1.84333795,0.03765277,1.09748997,0.03765282,2.80604492,1.97692645,1.09748990,1.97692672,2.60782571,-0.02170203,0.13735094,-0.28141021,0.69494526,0.00000000,0.00000000,0.00000000,0.61448867,0.00000000,0.00000000,-0.00000000,0.64256796,-2.74513221,-2.13069940,-9.01619625,10291009.21005011,0.00000000,0.00000000,0.00000000,7348085.28795838,0.00000000,0.00000000,-0.00000000,9135388.76920938,-2.53345823,-0.97080476,2.08966536,0.10838073,-0.21475981,0.12051750,0.96312376
1.76168246,0.53953946,0.82276994,-0.16722475,0.06310835,1.83557146,0.03343837,1.09091424,0.03343830,2.78135441,1.96207501,1.09091424,1.96207543,2.59842602,-0.01855686,0.14422208,-0.28788732,0.69494526,0.00000000,0.00000000,0.00000000,0.61448867,0.00000000,0.00000000,-0.00000000,0.64256796,-2.69969106,-2.14693880,-9.11889172,10291009.21005011,0.00000000,0.00000000,0.00000000,7348085.28795838,0.00000000,0.00000000,-0.00000000,9135388.76920938,-2.53290224,-0.97504761,2.09427924,0.10571244,-0.21287574,0.12010521,0.96388980
1.77650255,0.53783691,0.82407242,-0.16681144,0.06172486,1.81159102,0.02000097,1.07048777,0.02000106,2.70373638,1.91549439,1.07048784,1.91549411,2.56948393,-0.01590859,0.15688180,-0.30406150,0.69494526,0.00000000,0.00000000,0.00000000,0.61448867,0.00000000,0.00000000,-0.00000000,0.64256796,-2.59258199,-2.17681122,-9.20735073,10291009.21005011,0.00000000,0.00000000,0.00000000,7348085.28795838,0.00000000,0.00000000,-0.00000000,9135388.76920938,-2.53289882,-0.97507314,2.09430635,0.10569549,-0.21286384,0.12010322,0.96389453
1.79379253,0.53580987,0.82565778,-0.16612792,0.05998747,1.78342799,0.00319535,1.04617079,0.00319542,2.61140544,1.86023662,1.04617079,1.86023690,2.53634096,-0.02760203,0.16254787,-0.30787495,0.69494526,0.00000000,0.00000000,0.00000000,0.61448867,0.00000000,0.00000000,-0.00000000,0.64256796,-2.33957815,-2.08824277,-9.12146378,10291009.21005011,0.00000000,0.00000000,0.00000000,7348085.28795838,0.00000000,0.00000000,-0.00000000,9135388.76920938,-2.53259658,-0.97732788,2.09667245,0.10416057,-0.21178105,0.11994816,0.96431935
1.79873257,0.53522938,0.82611734,-0.16589126,0.05949522,1.77535634,-0.00171463,1.03913495,-0.00171463,2.58519089,1.84449046,1.03913515,1.84449046,2.52695735,-0.03235891,0.15986905,-0.30681258,0.69494526,0.00000000,0.00000000,0.00000000,0.61448867,0.00000000,0.00000000,-0.00000000,0.64256796,-2.26083755,-2.05638933,-9.06418133,10291009.21005011,0.00000000,0.00000000,0.00000000,7348085.28795838,0.00000000,0.00000000,-0.00000000,9135388.76920938,-2.53248230,-0.97818810,2.09756132,0.10355891,-0.21135693,0.11989676,0.96448357
1.80367234,0.53464907,0.82657498,-0.16565301,0.05901907,1.76727125,-0.00654396,1.03207092,-0.00654398,2.55926917,1.82882063,1.03207092,1.82882077,2.51746264,-0.03285132,0.15355296,-0.30628870,0.69494526,0.00000000,0.00000000,0.00000000,0.61448867,0.00000000,0.00000000,-0.00000000,0.64256796,-2.19879961,-2.02232504,-8.99972439,10291009.21005011,0.00000000,0.00000000,0.00000000,7348085.28795838,0.00000000,0.00000000,-0.00000000,9135388.76920938,-2.53235826,-0.97913449,2.09853085,0.10288883,-0.21088814,0.11984215,0.96466468
1.80861238,0.53407246,0.82702619,-0.16542567,0.05855432,1.75926553,-0.01122676,1.02506721,-0.01122674,2.53375860,1.81331814,1.02506714,1.81331786,2.50792693,-0.02699981,0.14835206,-0.30249716,0.69494526,0.00000000,0.00000000,0.00000000,0.61448867,0.00000000,0.00000000,-0.00000000,0.64256796,-2.12483096,-2.00722814,-8.93529320,10291009.21005011,0.00000000,0.00000000,0.00000000,7348085.28795838,0.00000000,0.00000000,-0.00000000,9135388.76920938,-2.53223038,-0.98013239,2.09954390,0.10217348,-0.21039533,0.11978399,0.96485552
1.81355241,0.53349686,0.82747489,-0.16520096,0.05809521,1.75130733,-0.01582886,1.01810209,-0.01582882,2.50847160,1.79790555,1.01810202,1.79790555,2.49838013,-0.02696154,0.14151549,-0.30305995,0.69494526,0.00000000,0.00000000,0.00000000,0.61448867,0.00000000,0.00000000,-0.00000000,0.64256796,-2.02933478,-2.00622964,-8.89953232,10291009.21005011,0.00000000,0.00000000,0.00000000,7348085.28795838,0.00000000,0.00000000,-0.00000000,9135388.76920938,-2.53210509,-0.98114235,2.10055987,0.10144071,-0.20990230,0.11972159,0.96504795
1.81849244,0.53292352,0.82791871,-0.16497906,0.05766256,1.74335037,-0.02028689,1.01112692,-0.02028691,2.48368662,1.78269284,1.01112692,1.78269298,2.48872917,-0.03168721,0.13252484,-0.29930752,0.69494526,0.00000000,0.00000000,0.00000000,0.61448867,0.00000000,0.00000000,-0.00000000,0.64256796,-1.94343567,-2.00055337,-8.87570477,10291009.21005011,0.00000000,0.00000000,0.00000000,7348085.28795838,0.00000000,0.00000000,-0.00000000,9135388.76920938,-2.53199224,-0.98209019,2.10150501,0.10074534,-0.20944851,0.11965733,0.96522734
1.82343247,0.53233826,0.82836479,-0.16476625,0.05727010,1.73515432,-0.02458967,1.00394729,-0.02458955,2.45909501,1.76737888,1.00394729,1.76737888,2.47854211,-0.03579065,0.11460557,-0.30314144,0.69494526,0.00000000,0.00000000,0.00000000,0.61448867,0.00000000,0.00000000,-0.00000000,0.64256796,-1.89346051,-2.00717449,-8.86142921,10291009.21005011,0.00000000,0.00000000,0.00000000,7348085.28795838,0.00000000,0.00000000,-0.00000000,9135388.76920938,-2.53188431,-0.98304228,2.10244652,0.10003940,-0.20900348,0.11958719,0.96540591
1.82837250,0.53174299,0.82881010,-0.16457015,0.05691986,1.72676254,-0.02868113,0.99659936,-0.02868113,2.43483891,1.75205688,0.99659950,1.75205674,2.46784779,-0.03726152,0.09565845,-0.30373460,0.69494526,0.00000000,0.00000000,0.00000000,0.61448867,0.00000000,0.00000000,-0.00000000,0.64256796,-1.85766935,-2.01873112,-8.87817574,10291009.21005011,0.00000000,0.00000000,0.00000000,7348085.28795838,0.00000000,0.00000000,-0.00000000,9135388.76920938,-2.53176116,-0.98420301,2.10358404,0.09916841,-0.20847705,0.11949659,0.96562079
1.84566249,0.52954781,0.83041084,-0.16396274,0.05579575,1.69606840,-0.04228372,0.96978943,-0.04228366,2.34897593,1.69696368,0.96978943,1.69696354,2.42749520,-0.03074647,0.07943263,-0.32595521,0.69494526,0.00000000,0.00000000,0.00000000,0.61448867,0.00000000,0.00000000,-0.00000000,0.64256796,-1.76212013,-1.96523249,-9.10737419,10291009.21005011,0.00000000,0.00000000,0.00000000,7348085.28795838,0.00000000,0.00000000,-0.00000000,9135388.76920938,-2.53147811,-0.98742530,2.10668600,0.09668757,-0.20712023,0.11924163,0.96619572
1.86048258,0.52745765,0.83186024,-0.16367035,0.05485441,1.66783140,-0.05288147,0.94529174,-0.05288153,2.27180104,1.64637126,0.94529167,1.64637154,2.38783828,-0.00027602,0.05188852,-0.35950256,0.69494526,0.00000000,0.00000000,0.00000000,0.61448867,0.00000000,0.00000000,-0.00000000,0.64256796,-1.87416005,-1.93778205,-8.96163082,10291009.21005011,0.00000000,0.00000000,0.00000000,7348085.28795838,0.00000000,0.00000000,-0.00000000,9135388.76920938,-2.53131062,-0.99031947,2.10941097,0.09437378,-0.20601858,0.11906421,0.96668177
1.86542236,0.52670962,0.83236510,-0.16361772,0.05454003,1.65796253,-0.05622252,0.93677093,-0.05622266,2.24513227,1.62872040,0.93677099,1.62872040,2.37354870,0.00295991,0.05140382,-0.37247228,0.69494526,0.00000000,0.00000000,0.00000000,0.61448867,0.00000000,0.00000000,-0.00000000,0.64256796,-1.88383675,-1.93309724,-9.10965824,10291009.21005011,0.00000000,0.00000000,0.00000000,7348085.28795838,0.00000000,0.00000000,-0.00000000,9135388.76920938,-2.53128519,-0.99098381,2.11002962,0.09382939,-0.20577858,0.11903684,0.96678925
1.87036239,0.52594924,0.83287716,-0.16356999,0.05420238,1.64809062,-0.05956910,0.92824152,-0.05956913,2.21812840,1.61088059,0.92824152,1.61088059,2.35918737,0.00770502,0.05829218,-0.37839472,0.69494526,0.00000000,0.00000000,0.00000000,0.61448867,0.00000000,0.00000000,-0.00000000,0.64256796,-1.86952043,-1.92101383,-9.30543137,10291009.21005011,0.00000000,0.00000000,0.00000000,7348085.28795838,0.00000000,0.00000000,-0.00000000,9135388.76920938,-2.53126023,-0.99183871,2.11082245,0.09311961,-0.20547745,0.11900941,0.96692529
1.87530242,0.52516741,0.83340353,-0.16351786,0.05384768,1.63806260,-0.06297121,0.91957380,-0.06297120,2.19056352,1.59266441,0.91957380,1.59266441,2.34455591,0.01035206,0.06305764,-0.39028823,0.69494526,0.00000000,0.00000000,0.00000000,0.61448867,0.00000000,0.00000000,-0.00000000,0.64256796,-1.88375723,-1.90685201,-9.42000294,10291009.21005011,0.00000000,0.00000000,0.00000000,7348085.28795838,0.00000000,0.00000000,-0.00000000,9135388.76920938,-2.53124301,-0.99280654,2.11171597,0.09230173,-0.20514787,0.11898890,0.96707621
1.88024246,0.52437860,0.83393258,-0.16347325,0.05347906,1.62809275,-0.06632181,0.91094611,-0.06632178,2.16296290,1.57441222,0.91094611,1.57441249,2.32988511,0.01934721,0.06683255,-0.39295952,0.69494526,0.00000000,0.00000000,0.00000000,0.61448867,0.00000000,0.00000000,-0.00000000,0.64256796,-1.91477644,-1.89285839,-9.42235756,10291009.21005011,0.00000000,0.00000000,0.00000000,7348085.28795838,0.00000000,0.00000000,-0.00000000,9135388.76920938,-2.53123824,-0.99382206,2.11264940,0.09142476,-0.20481616,0.11897935,0.96723098
1.88518249,0.52358299,0.83446175,-0.16344427,0.05310718,1.61817776,-0.06955567,0.90237473,-0.06955571,2.13550163,1.55619867,0.90237452,1.55619881,2.31511846,0.02256540,0.06318648,-0.39620245,0.69494526,0.00000000,0.00000000,0.00000000,0.61448867,0.00000000,0.00000000,-0.00000000,0.64256796,-1.92914569,-1.87152469,-9.39845753,10291009.21005011,0.00000000,0.00000000,0.00000000,7348085.28795838,0.00000000,0.00000000,-0.00000000,9135388.76920938,-2.53124804,-0.99484565,2.11358652,0.09051930,-0.20449712,0.11898199,0.96738331
1.89012252,0.52278715,0.83498907,-0.16342184,0.05272632,1.60840323,-0.07271322,0.89392200,-0.07271326,2.10826823,1.53812614,0.89392207,1.53812614,2.30047259,0.02996576,0.06694420,-0.39725473,0.69494526,0.00000000,0.00000000,0.00000000,0.61448867,0.00000000,0.00000000,-0.00000000,0.64256796,-1.92437363,-1.84044898,-9.39843082,10291009.21005011,0.00000000,0.00000000,0.00000000,7348085.28795838,0.00000000,0.00000000,-0.00000000,9135388.76920938,-2.53126969,-0.99575268,2.11441425,0.08969802,-0.20422693,0.11899433,0.96751536
1.89506255,0.52199411,0.83551508,-0.16339225,0.05234226,1.59876390,-0.07583404,0.88557392,-0.07583412,2.08135011,1.52026416,0.88557385,1.52026430,2.28601623,0.02729708,0.06796697,-0.39509920,0.69494526,0.00000000,0.00000000,0.00000000,0.61448867,0.00000000,0.00000000,-0.00000000,0.64256796,-1.91477644,-1.81410110,-9.39840698,10291009.21005011,0.00000000,0.00000000,0.00000000,7348085.28795838,0.00000000,0.00000000,-0.00000000,9135388.76920938,-2.53131349,-0.99685636,2.11541861,0.08867368,-0.20391353,0.11902163,0.96767252
1.90988239,0.51969540,0.83703262,-0.16329226,0.05127055,1.57126163,-0.08446253,0.86167867,-0.08446255,2.00544424,1.46957547,0.86167874,1.46957561,2.24441748,0.02144977,0.06000641,-0.36969291,0.69494526,0.00000000,0.00000000,0.00000000,0.61448867,0.00000000,0.00000000,-0.00000000,0.64256796,-1.84327340,-1.83482087,-9.29820347,10291009.21005011,0.00000000,0.00000000,0.00000000,7348085.28795838,0.00000000,0.00000000,-0.00000000,9135388.76920938,-2.53153554,-0.99982697,2.11811149,0.08577882,-0.20314493,0.11916083,0.96807790
1.92470249,0.51754701,0.83842981,-0.16320394,0.05044784,1.54589983,-0.09157493,0.83957364,-0.09157506,1.93875437,1.42422633,0.83957357,1.42422646,2.20537575,0.00678258,0.01566350,-0.33737871,0.69494526,0.00000000,0.00000000,0.00000000,0.61448867,0.00000000,0.00000000,-0.00000000,0.64256796,-1.83606219,-1.84191000,-9.05229473,10291009.21005011,0.00000000,0.00000000,0.00000000,7348085.28795838,0.00000000,0.00000000,-0.00000000,9135388.76920938,-2.53214502,-1.00405853,2.12193750,0.08140792,-0.20216797,0.11952950,0.96861425
1.92964252,0.51686502,0.83886766,-0.16317591,0.05025207,1.53785338,-0.09357100,0.83255345,-0.09357104,1.91873710,1.41038127,0.83255352,1.41038141,2.19289211,-0.00009209,0.00875164,-0.32821511,0.69494526,0.00000000,0.00000000,0.00000000,0.61448867,0.00000000,0.00000000,-0.00000000,0.64256796,-1.85753691,-1.86600161,-9.10005569,10291009.21005011,0.00000000,0.00000000,0.00000000,7348085.28795838,0.00000000,0.00000000,-0.00000000,9135388.76920938,-2.53214654,-1.00406659,2.12194479,0.08139943,-0.20216626,0.11953033,0.96861522
1.93458255,0.51619470,0.83929718,-0.16314532,0.05006788,1.52999340,-0.09548466,0.82568869,-0.09548468,1.89934873,1.39692450,0.82568862,1.39692450,2.18067679,-0.00222135,0.00662236,-0.32064970,0.69494526,0.00000000,0.00000000,0.00000000,0.61448867,0.00000000,0.00000000,-0.00000000,0.64256796,-1.87423956,-1.89242971,-9.20034695,10291009.21005011,0.00000000,0.00000000,0.00000000,7348085.28795838,0.00000000,0.00000000,-0.00000000,9135388.76920938,-2.53215164,-1.00409363,2.12196923,0.08137094,-0.20216053,0.11953314,0.96861846
1.93952258,0.51554376,0.83971584,-0.16310458,0.04988839,1.52240865,-0.09735397,0.81904854,-0.09735402,1.88064827,1.38394743,0.81904854,1.38394757,2.16892704,-0.00331128,0.00871119,-0.31198171,0.69494526,0.00000000,0.00000000,0.00000000,0.61448867,0.00000000,0.00000000,-0.00000000,0.64256796,-1.87193286,-1.91864979,-9.28394318,10291009.21005011,0.00000000,0.00000000,0.00000000,7348085.28795838,0.00000000,0.00000000,-0.00000000,9135388.76920938,-2.53234284,-1.00505140,2.12283529,0.08035940,-0.20196401,0.11963376,0.96873147
1.94446236,0.51490831,0.84012425,-0.16306150,0.04971560,1.51505746,-0.09915368,0.81260122,-0.09915362,1.86259236,1.37138968,0.81260115,1.37138954,2.15750436,-0.00596386,0.00447185,-0.30225834,0.69494526,0.00000000,0.00000000,0.00000000,0.61448867,0.00000000,0.00000000,-0.00000000,0.64256796,-1.86954677,-1.94726372,-9.29829788,10291009.21005011,0.00000000,0.00000000,0.00000000,7348085.28795838,0.00000000,0.00000000,-0.00000000,9135388.76920938,-2.53253409,-1.00591960,2.12362063,0.07944010,-0.20179843,0.11972506,0.96883052
1.95187253,0.51396108,0.84072834,-0.16299966,0.04950700,1.50411823,-0.10163577,0.80301142,-0.10163571,1.83653559,1.35307986,0.80301142,1.35308000,2.14040136,-0.01226236,-0.00874322,-0.29744304,0.69494526,0.00000000,0.00000000,0.00000000,0.61448867,0.00000000,0.00000000,-0.00000000,0.64256796,-1.91005707,-1.98588026,-9.23145294,10291009.21005011,0.00000000,0.00000000,0.00000000,7348085.28795838,0.00000000,0.00000000,-0.00000000,9135388.76920938,-2.53274197,-1.00678345,2.12440256,0.07852632,-0.20164566,0.11981406,0.96892582
1.95681257,0.51333791,0.84112424,-0.16295774,0.04938570,1.49696360,-0.10319128,0.79673489,-0.10319129,1.81976643,1.34123260,0.79673489,1.34123232,2.12919158,-0.01279342,-0.01032802,-0.29474473,0.69494526,0.00000000,0.00000000,0.00000000,0.61448867,0.00000000,0.00000000,-0.00000000,0.64256796,-1.94343567,-1.99578035,-9.21950245,10291009.21005011,0.00000000,0.00000000,0.00000000,7348085.28795838,0.00000000,0.00000000,-0.00000000,9135388.76920938,-2.53296546,-1.00763755,2.12517645,0.07762712,-0.20150607,0.11989844,0.96901687
1.96175234,0.51272315,0.84151453,-0.16291261,0.04927227,1.48994584,-0.10469240,0.79057113,-0.10469248,1.80342559,1.32966612,0.79057106,1.32966612,2.11819070,-0.01440103,-0.00982109,-0.28987727,0.69494526,0.00000000,0.00000000,0.00000000,0.61448867,0.00000000,0.00000000,-0.00000000,0.64256796,-1.96968293,-2.00321603,-9.27201843,10291009.21005011,0.00000000,0.00000000,0.00000000,7348085.28795838,0.00000000,0.00000000,-0.00000000,9135388.76920938,-2.53322335,-1.00854503,2.12599988,0.07668034,-0.20136991,0.11998206,0.96911020
1.97657244,0.51094174,0.84265530,-0.16272660,0.04889446,1.46994686,-0.10921244,0.77293128,-0.10921239,1.75618974,1.29637064,0.77293128,1.29637050,2.08699510,-0.01821203,0.00065116,-0.27578597,0.69494526,0.00000000,0.00000000,0.00000000,0.61448867,0.00000000,0.00000000,-0.00000000,0.64256796,-2.04847646,-1.99210584,-9.39134026,10291009.21005011,0.00000000,0.00000000,0.00000000,7348085.28795838,0.00000000,0.00000000,-0.00000000,9135388.76920938,-2.53425608,-1.01160001,2.12878332,0.07359953,-0.20099191,0.12019662,0.96940092
