time_s,orientation_x,orientation_y,orientation_z,orientation_w,orientation_covariance_0,orientation_covariance_1,orientation_covariance_2,orientation_covariance_3,orientation_covariance_4,orientation_covariance_5,orientation_covariance_6,orientation_covariance_7,orientation_covariance_8,angular_velocity_x,angular_velocity_y,angular_velocity_z,angular_velocity_covariance_0,angular_velocity_covariance_1,angular_velocity_covariance_2,angular_velocity_covariance_3,angular_velocity_covariance_4,angular_velocity_covariance_5,angular_velocity_covariance_6,angular_velocity_covariance_7,angular_velocity_covariance_8,linear_acceleration_x,linear_acceleration_y,linear_acceleration_z,linear_acceleration_covariance_0,linear_acceleration_covariance_1,linear_acceleration_covariance_2,linear_acceleration_covariance_3,linear_acceleration_covariance_4,linear_acceleration_covariance_5,linear_acceleration_covariance_6,linear_acceleration_covariance_7,linear_acceleration_covariance_8,x,y,z,w,rot_x,rot_y,rot_z
-0.69683931,0.57233679,0.78506911,-0.14576897,0.18667744,1.91796303,0.42065228,1.20534363,0.42065239,2.97206535,1.85422385,1.20534349,1.85422399,2.16346407,-0.02574789,-0.03919348,-0.00371271,0.69494526,0.00000000,0.00000000,0.00000000,0.61448867,0.00000000,0.00000000,-0.00000000,0.64256796,-4.51606083,-0.19275387,-8.69291306,10291009.21005011,0.00000000,0.00000000,0.00000000,7348085.28795838,0.00000000,0.00000000,-0.00000000,9135388.76920938,-0.69511706,1.77492782,2.10549744,0.02511154,-0.22711381,0.02589972,0.97319984
-0.67954932,0.57228190,0.78506821,-0.14583336,0.18679921,1.91627276,0.42017403,1.20395479,0.42017403,2.97045404,1.85282822,1.20395465,1.85282822,2.16177519,-0.03216356,-0.03769039,0.01576503,0.69494526,0.00000000,0.00000000,0.00000000,0.61448867,0.00000000,0.00000000,-0.00000000,0.64256796,-4.57820415,-0.15759753,-8.71911335,10291009.21005011,0.00000000,0.00000000,0.00000000,7348085.28795838,0.00000000,0.00000000,-0.00000000,9135388.76920938,-0.69537422,1.77490619,2.10521356,0.02495654,-0.22725028,0.02581720,0.97317416
-0.67460955,0.57228106,0.78505361,-0.14585997,0.18684232,1.91596357,0.42015640,1.20368868,0.42015644,2.97023600,1.85256198,1.20368882,1.85256198,2.16136904,-0.02952288,-0.03924432,0.02226281,0.69494526,0.00000000,0.00000000,0.00000000,0.61448867,0.00000000,0.00000000,-0.00000000,0.64256796,-4.59252071,-0.15536146,-8.72865200,10291009.21005011,0.00000000,0.00000000,0.00000000,7348085.28795838,0.00000000,0.00000000,-0.00000000,9135388.76920938,-0.69546466,1.77489350,2.10511618,0.02491584,-0.22729832,0.02577746,0.97316504
-0.66966952,0.57229155,0.78502858,-0.14588577,0.18689555,1.91579582,0.42023186,1.20354004,0.42023186,2.97023295,1.85244022,1.20354004,1.85244008,2.16107260,-0.03592815,-0.03510613,0.02874968,0.69494526,0.00000000,0.00000000,0.00000000,0.61448867,0.00000000,0.00000000,-0.00000000,0.64256796,-4.61160946,-0.16033529,-8.72625732,10291009.21005011,0.00000000,0.00000000,0.00000000,7348085.28795838,0.00000000,0.00000000,-0.00000000,9135388.76920938,-0.69555927,1.77487766,2.10501523,0.02488162,-0.22734707,0.02572893,0.97315581
-0.66472948,0.57230586,0.78499585,-0.14591911,0.18696295,1.91561061,0.42035314,1.20337811,0.42035314,2.97021245,1.85226498,1.20337797,1.85226512,2.16068196,-0.03486313,-0.03667373,0.03037228,0.69494526,0.00000000,0.00000000,0.00000000,0.61448867,0.00000000,0.00000000,-0.00000000,0.64256796,-4.63069820,-0.16530913,-8.70953846,10291009.21005011,0.00000000,0.00000000,0.00000000,7348085.28795838,0.00000000,0.00000000,-0.00000000,9135388.76920938,-0.69565445,1.77485918,2.10491439,0.02485640,-0.22739364,0.02567209,0.97314708
-0.65978945,0.57232106,0.78495932,-0.14596179,0.18703657,1.91539825,0.42051646,1.20320412,0.42051639,2.97008390,1.85202201,1.20320399,1.85202201,2.16022012,-0.03224531,-0.03244053,0.03147045,0.69494526,0.00000000,0.00000000,0.00000000,0.61448867,0.00000000,0.00000000,-0.00000000,0.64256796,-4.64021635,-0.16302529,-8.67849064,10291009.21005011,0.00000000,0.00000000,0.00000000,7348085.28795838,0.00000000,0.00000000,-0.00000000,9135388.76920938,-0.69573894,1.77484072,2.10482527,0.02484204,-0.22743269,0.02561456,0.97313984
-0.65484942,0.57234037,0.78491277,-0.14601161,0.18713374,1.91513090,0.42075209,1.20299565,0.42075206,2.96988858,1.85171200,1.20299565,1.85171200,2.15963056,-0.03701175,-0.03512111,0.03577991,0.69494526,0.00000000,0.00000000,0.00000000,0.61448867,0.00000000,0.00000000,-0.00000000,0.64256796,-4.64260244,-0.16543695,-8.64745426,10291009.21005011,0.00000000,0.00000000,0.00000000,7348085.28795838,0.00000000,0.00000000,-0.00000000,9135388.76920938,-0.69583344,1.77481788,2.10472571,0.02483500,-0.22747439,0.02554252,0.97313216
-0.64002932,0.57241786,0.78474802,-0.14614284,0.18748498,1.91446862,0.42167050,1.20254073,0.42167071,2.96972319,1.85096757,1.20254073,1.85096785,2.15797576,-0.03284933,-0.02561530,0.04122527,0.69494526,0.00000000,0.00000000,0.00000000,0.61448867,0.00000000,0.00000000,-0.00000000,0.64256796,-4.70700026,-0.17327636,-8.69755650,10291009.21005011,0.00000000,0.00000000,0.00000000,7348085.28795838,0.00000000,0.00000000,-0.00000000,9135388.76920938,-0.69615488,1.77472389,2.10438345,0.02488491,-0.22761014,0.02523874,0.97310707
-0.62520948,0.57250547,0.78457588,-0.14623661,0.18786447,1.91398766,0.42268568,1.20227477,0.42268575,2.97005564,1.85051141,1.20227477,1.85051155,2.15659218,-0.03288395,-0.01772471,0.03637435,0.69494526,0.00000000,0.00000000,0.00000000,0.61448867,0.00000000,0.00000000,-0.00000000,0.64256796,-4.71893072,-0.19010788,-8.65697765,10291009.21005011,0.00000000,0.00000000,0.00000000,7348085.28795838,0.00000000,0.00000000,-0.00000000,9135388.76920938,-0.69643501,1.77462067,2.10407073,0.02501433,-0.22777539,0.02492902,0.97307307
-0.62026945,0.57253402,0.78452098,-0.14626285,0.18798622,1.91385039,0.42301585,1.20220523,0.42301599,2.97021882,1.85039851,1.20220523,1.85039851,2.15617951,-0.03183207,-0.01666240,0.03692118,0.69494526,0.00000000,0.00000000,0.00000000,0.61448867,0.00000000,0.00000000,-0.00000000,0.64256796,-4.71893072,-0.19010788,-8.66891479,10291009.21005011,0.00000000,0.00000000,0.00000000,7348085.28795838,0.00000000,0.00000000,-0.00000000,9135388.76920938,-0.69648923,1.77459805,2.10400740,0.02504704,-0.22782093,0.02486907,0.97306310
-0.61532942,0.57256514,0.78446722,-0.14627840,0.18810369,1.91380454,0.42334581,1.20221105,0.42334588,2.97055710,1.85041209,1.20221091,1.85041195,2.15590787,-0.03397509,-0.01195020,0.03476231,0.69494526,0.00000000,0.00000000,0.00000000,0.61448867,0.00000000,0.00000000,-0.00000000,0.64256796,-4.70461416,-0.19950373,-8.67848301,10291009.21005011,0.00000000,0.00000000,0.00000000,7348085.28795838,0.00000000,0.00000000,-0.00000000,9135388.76920938,-0.69657816,1.77455870,2.10390123,0.02510517,-0.22790647,0.02477180,0.97304405
-0.61038939,0.57259405,0.78441685,-0.14628750,0.18821865,1.91374663,0.42364780,1.20220661,0.42364786,2.97092613,1.85044450,1.20220661,1.85044436,2.15566171,-0.03505301,-0.00933204,0.03530711,0.69494526,0.00000000,0.00000000,0.00000000,0.61448867,0.00000000,0.00000000,-0.00000000,0.64256796,-4.69029760,-0.20889957,-8.67133904,10291009.21005011,0.00000000,0.00000000,0.00000000,7348085.28795838,0.00000000,0.00000000,-0.00000000,9135388.76920938,-0.69666432,1.77451752,2.10379546,0.02516613,-0.22800204,0.02467901,0.97302245
-0.60544936,0.57262176,0.78436840,-0.14629841,0.18832779,1.91369469,0.42393572,1.20220287,0.42393579,2.97127050,1.85046445,1.20220301,1.85046445,2.15541666,-0.03399574,-0.00826831,0.03206114,0.69494526,0.00000000,0.00000000,0.00000000,0.61448867,0.00000000,0.00000000,-0.00000000,0.64256796,-4.67354202,-0.20634227,-8.65224171,10291009.21005011,0.00000000,0.00000000,0.00000000,7348085.28795838,0.00000000,0.00000000,-0.00000000,9135388.76920938,-0.69674834,1.77447395,2.10368931,0.02522917,-0.22810726,0.02459019,0.97299840
-0.60050932,0.57264304,0.78432453,-0.14631440,0.18843323,1.91354383,0.42418651,1.20212087,0.42418645,2.97142620,1.85037011,1.20212087,1.85037011,2.15507257,-0.03345124,-0.00931314,0.02935405,0.69494526,0.00000000,0.00000000,0.00000000,0.61448867,0.00000000,0.00000000,-0.00000000,0.64256796,-4.65206718,-0.20372993,-8.61643887,10291009.21005011,0.00000000,0.00000000,0.00000000,7348085.28795838,0.00000000,0.00000000,-0.00000000,9135388.76920938,-0.69682664,1.77442975,2.10358745,0.02529038,-0.22821581,0.02450900,0.97297341
-0.59309941,0.57265985,0.78427219,-0.14633359,0.18858500,1.91312452,0.42444912,1.20185338,0.42444929,2.97138076,1.85006495,1.20185365,1.85006522,2.15444603,-0.03396517,-0.00773712,0.02449475,0.69494526,0.00000000,0.00000000,0.00000000,0.61448867,0.00000000,0.00000000,-0.00000000,0.64256796,-4.64501429,-0.20603159,-8.56154251,10291009.21005011,0.00000000,0.00000000,0.00000000,7348085.28795838,0.00000000,0.00000000,-0.00000000,9135388.76920938,-0.69690079,1.77438418,2.10348832,0.02535040,-0.22832556,0.02443166,0.97294804
-0.58815937,0.57266539,0.78423876,-0.14635350,0.18869165,1.91271103,0.42459928,1.20157079,0.42459932,2.97112893,1.84970811,1.20157079,1.84970811,2.15387129,-0.03341534,-0.01036014,0.02232266,0.69494526,0.00000000,0.00000000,0.00000000,0.61448867,0.00000000,0.00000000,-0.00000000,0.64256796,-4.65930462,-0.20857109,-8.55437088,10291009.21005011,0.00000000,0.00000000,0.00000000,7348085.28795838,0.00000000,0.00000000,-0.00000000,9135388.76920938,-0.69699702,1.77431879,2.10335584,0.02543149,-0.22847121,0.02432516,0.97291440
-0.57333953,0.57266355,0.78415102,-0.14640236,0.18902382,1.91116385,0.42492551,1.20050429,0.42492537,2.97000993,1.84840848,1.20050429,1.84840820,2.15195994,-0.03870898,-0.01041333,0.02014296,0.69494526,0.00000000,0.00000000,0.00000000,0.61448867,0.00000000,0.00000000,-0.00000000,0.64256796,-4.69509649,-0.17553513,-8.64026833,10291009.21005011,0.00000000,0.00000000,0.00000000,7348085.28795838,0.00000000,0.00000000,-0.00000000,9135388.76920938,-0.69720882,1.77414237,2.10304958,0.02562389,-0.22875019,0.02402321,0.97285130
-0.55851944,0.57264286,0.78408891,-0.14643279,0.18932027,1.90953634,0.42507251,1.19937698,0.42507251,2.96878815,1.84708072,1.19937712,1.84708086,2.15014666,-0.02760553,-0.00293359,0.01369855,0.69494526,0.00000000,0.00000000,0.00000000,0.61448867,0.00000000,0.00000000,-0.00000000,0.64256796,-4.67600727,-0.11328320,-8.72139549,10291009.21005011,0.00000000,0.00000000,0.00000000,7348085.28795838,0.00000000,0.00000000,-0.00000000,9135388.76920938,-0.69736669,1.77397031,2.10280609,0.02577581,-0.22889329,0.02371529,0.97282118
-0.55357941,0.57264018,0.78406870,-0.14644587,0.18940191,1.90912326,0.42515473,1.19909675,0.42515487,2.96848838,1.84675090,1.19909689,1.84675062,2.14966653,-0.03135144,0.00018144,0.01531064,0.69494526,0.00000000,0.00000000,0.00000000,0.61448867,0.00000000,0.00000000,-0.00000000,0.64256796,-4.67351532,-0.11088121,-8.75480938,10291009.21005011,0.00000000,0.00000000,0.00000000,7348085.28795838,0.00000000,0.00000000,-0.00000000,9135388.76920938,-0.69738906,1.77394214,2.10277029,0.02579727,-0.22890848,0.02366556,0.97281825
-0.53875931,0.57260764,0.78403080,-0.14647970,0.18963112,1.90759534,0.42519940,1.19802956,0.42519954,2.96716936,1.84548673,1.19802956,1.84548673,2.14803832,-0.03081288,0.00282032,0.00882893,0.69494526,0.00000000,0.00000000,0.00000000,0.61448867,0.00000000,0.00000000,-0.00000000,0.64256796,-4.63777685,-0.09379402,-8.71900845,10291009.21005011,0.00000000,0.00000000,0.00000000,7348085.28795838,0.00000000,0.00000000,-0.00000000,9135388.76920938,-0.69754897,1.77370006,2.10250274,0.02593749,-0.22897192,0.02327279,0.97280907
-0.53381953,0.57258773,0.78402585,-0.14650589,0.18969126,1.90698251,0.42516823,1.19758850,0.42516830,2.96642438,1.84488941,1.19758850,1.84488928,2.14736620,-0.02390269,0.00499921,0.00345515,0.69494526,0.00000000,0.00000000,0.00000000,0.61448867,0.00000000,0.00000000,-0.00000000,0.64256796,-4.62839174,-0.09367919,-8.68799114,10291009.21005011,0.00000000,0.00000000,0.00000000,7348085.28795838,0.00000000,0.00000000,-0.00000000,9135388.76920938,-0.69755749,1.77368447,2.10248782,0.02594372,-0.22897277,0.02325036,0.97280924
-0.52887950,0.57256746,0.78402120,-0.14653768,0.18974707,1.90635943,0.42514642,1.19713594,0.42514656,2.96562343,1.84426716,1.19713608,1.84426716,2.14666389,-0.01806606,0.00348082,0.00455002,0.69494526,0.00000000,0.00000000,0.00000000,0.61448867,0.00000000,0.00000000,-0.00000000,0.64256796,-4.62361956,-0.09124244,-8.68560505,10291009.21005011,0.00000000,0.00000000,0.00000000,7348085.28795838,0.00000000,0.00000000,-0.00000000,9135388.76920938,-0.69759206,1.77361703,2.10242641,0.02596710,-0.22897357,0.02315762,0.97281064
-0.52393947,0.57253957,0.78402191,-0.14658022,0.18979555,1.90563467,0.42509021,1.19660692,0.42509007,2.96454793,1.84349046,1.19660692,1.84349060,2.14584438,-0.01595719,0.00508122,-0.00086533,0.69494526,0.00000000,0.00000000,0.00000000,0.61448867,0.00000000,0.00000000,-0.00000000,0.64256796,-4.62346029,-0.08887035,-8.69513798,10291009.21005011,0.00000000,0.00000000,0.00000000,7348085.28795838,0.00000000,0.00000000,-0.00000000,9135388.76920938,-0.69762397,1.77354759,2.10236847,0.02598547,-0.22897063,0.02306935,0.97281294
-0.50664948,0.57243884,0.78402352,-0.14675532,0.18995741,1.90301047,0.42493828,1.19468476,0.42493835,2.96045926,1.84059392,1.19468476,1.84059379,2.14279477,-0.01225600,0.00880267,-0.00463172,0.69494526,0.00000000,0.00000000,0.00000000,0.61448867,0.00000000,0.00000000,-0.00000000,0.64256796,-4.60917044,-0.09826379,-8.73813248,10291009.21005011,0.00000000,0.00000000,0.00000000,7348085.28795838,0.00000000,0.00000000,-0.00000000,9135388.76920938,-0.69771805,1.77327277,2.10218839,0.02601181,-0.22894555,0.02278739,0.97282478
-0.49182939,0.57235241,0.78402615,-0.14689066,0.19010213,1.90077054,0.42480620,1.19304796,0.42480627,2.95709977,1.83819455,1.19304796,1.83819441,2.14024012,-0.01116784,0.00407966,-0.00030216,0.69494526,0.00000000,0.00000000,0.00000000,0.61448867,0.00000000,0.00000000,-0.00000000,0.64256796,-4.62359285,-0.09840462,-8.69277096,10291009.21005011,0.00000000,0.00000000,0.00000000,7348085.28795838,0.00000000,0.00000000,-0.00000000,9135388.76920938,-0.69776644,1.77304079,2.10208726,0.02599542,-0.22893011,0.02261971,0.97283277
-0.48688936,0.57232410,0.78402400,-0.14693393,0.19016282,1.89999079,0.42477032,1.19248195,0.42477032,2.95596942,1.83736936,1.19248223,1.83736922,2.13934622,-0.01485356,0.00141375,-0.00302516,0.69494526,0.00000000,0.00000000,0.00000000,0.61448867,0.00000000,0.00000000,-0.00000000,0.64256796,-4.61882067,-0.10551421,-8.67129326,10291009.21005011,0.00000000,0.00000000,0.00000000,7348085.28795838,0.00000000,0.00000000,-0.00000000,9135388.76920938,-0.69776895,1.77302488,2.10208174,0.02599352,-0.22892944,0.02261012,0.97283320
-0.46712949,0.57222044,0.78400141,-0.14709468,0.19044346,1.89688231,0.42469240,1.19024257,0.42469240,2.95167878,1.83415090,1.19024244,1.83415104,2.13579654,-0.01593413,0.00245226,0.00076057,0.69494526,0.00000000,0.00000000,0.00000000,0.61448867,0.00000000,0.00000000,-0.00000000,0.64256796,-4.59016132,-0.10044247,-8.73337936,10291009.21005011,0.00000000,0.00000000,0.00000000,7348085.28795838,0.00000000,0.00000000,-0.00000000,9135388.76920938,-0.69780436,1.77267317,2.10199922,0.02594121,-0.22891901,0.02244089,0.97284097
-0.46218945,0.57219374,0.78399730,-0.14713898,0.19050616,1.89611821,0.42466588,1.18968806,0.42466588,2.95057806,1.83333222,1.18968792,1.83333208,2.13490708,-0.01326674,0.00142947,-0.00193830,0.69494526,0.00000000,0.00000000,0.00000000,0.61448867,0.00000000,0.00000000,-0.00000000,0.64256796,-4.59496021,-0.10049021,-8.75008965,10291009.21005011,0.00000000,0.00000000,0.00000000,7348085.28795838,0.00000000,0.00000000,-0.00000000,9135388.76920938,-0.69780542,1.77265031,2.10199647,0.02593738,-0.22891831,0.02243181,0.97284144
-0.45724942,0.57216388,0.78399366,-0.14719099,0.19057092,1.89527737,0.42463194,1.18907482,0.42463187,2.94931306,1.83241007,1.18907482,1.83241007,2.13391802,-0.01166542,0.00039493,-0.00356002,0.69494526,0.00000000,0.00000000,0.00000000,0.61448867,0.00000000,0.00000000,-0.00000000,0.64256796,-4.60211849,-0.10533864,-8.74770355,10291009.21005011,0.00000000,0.00000000,0.00000000,7348085.28795838,0.00000000,0.00000000,-0.00000000,9135388.76920938,-0.69780804,1.77256806,2.10198935,0.02592330,-0.22891541,0.02239995,0.97284323
-0.45230939,0.57212692,0.78399557,-0.14724332,0.19063351,1.89433901,0.42455000,1.18838746,0.42454993,2.94789181,1.83139510,1.18838746,1.83139524,2.13285651,-0.01325245,-0.00067288,-0.00628202,0.69494526,0.00000000,0.00000000,0.00000000,0.61448867,0.00000000,0.00000000,-0.00000000,0.64256796,-4.60439825,-0.11730632,-8.74770355,10291009.21005011,0.00000000,0.00000000,0.00000000,7348085.28795838,0.00000000,0.00000000,-0.00000000,9135388.76920938,-0.69780878,1.77247428,2.10198653,0.02590660,-0.22891150,0.02236454,0.97284542
-0.43748955,0.57199651,0.78402734,-0.14744179,0.19074091,1.89144663,0.42411815,1.18622122,0.42411798,2.94303820,1.82808853,1.18622109,1.82808840,2.12959441,-0.01270401,-0.00013804,-0.01168662,0.69494526,0.00000000,0.00000000,0.00000000,0.61448867,0.00000000,0.00000000,-0.00000000,0.64256796,-4.60445118,-0.14594051,-8.75967312,10291009.21005011,0.00000000,0.00000000,0.00000000,7348085.28795838,0.00000000,0.00000000,-0.00000000,9135388.76920938,-0.69779942,1.77222681,2.10200596,0.02585748,-0.22890213,0.02227227,0.97285104
-0.42266945,0.57184303,0.78417951,-0.14751065,0.19052204,1.88983795,0.42298108,1.18491065,0.42298115,2.94011064,1.82654815,1.18491079,1.82654773,2.12864663,-0.00792073,0.00517771,-0.02626984,0.69494526,0.00000000,0.00000000,0.00000000,0.61448867,0.00000000,0.00000000,-0.00000000,0.64256796,-4.60925007,-0.12450899,-8.76442719,10291009.21005011,0.00000000,0.00000000,0.00000000,7348085.28795838,0.00000000,0.00000000,-0.00000000,9135388.76920938,-0.69777166,1.77195612,2.10206882,0.02578809,-0.22889694,0.02217413,0.97285635
-0.41772942,0.57180077,0.78424025,-0.14745189,0.19044444,1.88965080,0.42253233,1.18473971,0.42253240,2.94023199,1.82670787,1.18473957,1.82670787,2.12896800,-0.00473602,0.00573765,-0.02896549,0.69494526,0.00000000,0.00000000,0.00000000,0.61448867,0.00000000,0.00000000,-0.00000000,0.64256796,-4.61640835,-0.12458424,-8.75964832,10291009.21005011,0.00000000,0.00000000,0.00000000,7348085.28795838,0.00000000,0.00000000,-0.00000000,9135388.76920938,-0.69776325,1.77189578,2.10208791,0.02576859,-0.22889533,0.02215493,0.97285768
-0.40290932,0.57162917,0.78435457,-0.14739746,0.19053076,1.88688185,0.42152980,1.18269233,0.42152963,2.93728613,1.82454468,1.18269219,1.82454495,2.12688211,0.00002510,0.01210249,-0.03921879,0.69494526,0.00000000,0.00000000,0.00000000,0.61448867,0.00000000,0.00000000,-0.00000000,0.64256796,-4.64026880,-0.11051555,-8.75006962,10291009.21005011,0.00000000,0.00000000,0.00000000,7348085.28795838,0.00000000,0.00000000,-0.00000000,9135388.76920938,-0.69771129,1.77159996,2.10220420,0.02564224,-0.22887648,0.02208962,0.97286694
-0.39796955,0.57155371,0.78439683,-0.14741263,0.19057143,1.88557543,0.42116576,1.18173859,0.42116579,2.93549419,1.82329990,1.18173859,1.82329990,2.12572045,0.00533461,0.01268504,-0.04353204,0.69494526,0.00000000,0.00000000,0.00000000,0.61448867,0.00000000,0.00000000,-0.00000000,0.64256796,-4.63788271,-0.12003682,-8.71426773,10291009.21005011,0.00000000,0.00000000,0.00000000,7348085.28795838,0.00000000,0.00000000,-0.00000000,9135388.76920938,-0.69769792,1.77153679,2.10223354,0.02560768,-0.22886894,0.02208375,0.97286976
-0.39055937,0.57144290,0.78446090,-0.14743526,0.19062251,1.88368970,0.42065062,1.18036775,0.42065048,2.93286750,1.82152319,1.18036762,1.82152319,2.12407534,0.00529841,0.01583784,-0.04082487,0.69494526,0.00000000,0.00000000,0.00000000,0.61448867,0.00000000,0.00000000,-0.00000000,0.64256796,-4.63303137,-0.13192683,-8.70233727,10291009.21005011,0.00000000,0.00000000,0.00000000,7348085.28795838,0.00000000,0.00000000,-0.00000000,9135388.76920938,-0.69767508,1.77143652,2.10228311,0.02554677,-0.22885377,0.02208138,0.97287498
-0.37079950,0.57108998,0.78467172,-0.14758377,0.19069743,1.87786671,0.41898307,1.17606437,0.41898321,2.92389973,1.81560323,1.17606465,1.81560281,2.11871224,0.01114915,0.01800749,-0.05325272,0.69494526,0.00000000,0.00000000,0.00000000,0.61448867,0.00000000,0.00000000,-0.00000000,0.64256796,-4.63777685,-0.14152575,-8.59012890,10291009.21005011,0.00000000,0.00000000,0.00000000,7348085.28795838,0.00000000,0.00000000,-0.00000000,9135388.76920938,-0.69756148,1.77102995,2.10251856,0.02523061,-0.22876225,0.02214771,0.97290325
-0.35597941,0.57077235,0.78486276,-0.14775491,0.19072962,1.87265973,0.41747981,1.17217946,0.41747984,2.91545725,1.81014372,1.17217960,1.81014345,2.11380046,0.01117267,0.01643198,-0.05595816,0.69494526,0.00000000,0.00000000,0.00000000,0.61448867,0.00000000,0.00000000,-0.00000000,0.64256796,-4.61396933,-0.15320303,-8.63790989,10291009.21005011,0.00000000,0.00000000,0.00000000,7348085.28795838,0.00000000,0.00000000,-0.00000000,9135388.76920938,-0.69744653,1.77070290,2.10274039,0.02491321,-0.22867485,0.02226742,0.97292924
-0.35103937,0.57066154,0.78493190,-0.14780612,0.19073711,1.87088773,0.41694091,1.17085947,0.41694074,2.91260781,1.80830994,1.17085947,1.80831022,2.11217114,0.01063796,0.01800529,-0.05866387,0.69494526,0.00000000,0.00000000,0.00000000,0.61448867,0.00000000,0.00000000,-0.00000000,0.64256796,-4.60439825,-0.15310511,-8.65701294,10291009.21005011,0.00000000,0.00000000,0.00000000,7348085.28795838,0.00000000,0.00000000,-0.00000000,9135388.76920938,-0.69742269,1.77064108,2.10278458,0.02484893,-0.22865906,0.02229483,0.97293397
-0.33621953,0.57032651,0.78514624,-0.14794257,0.19075134,1.86561897,0.41528386,1.16693190,0.41528403,2.90423376,1.80292191,1.16693204,1.80292178,2.10740564,0.00799508,0.01955836,-0.06245124,0.69494526,0.00000000,0.00000000,0.00000000,0.61448867,0.00000000,0.00000000,-0.00000000,0.64256796,-4.58774853,-0.17440400,-8.59019756,10291009.21005011,0.00000000,0.00000000,0.00000000,7348085.28795838,0.00000000,0.00000000,-0.00000000,9135388.76920938,-0.69727197,1.77028008,2.10305179,0.02445297,-0.22856978,0.02248032,0.97296071
-0.33127950,0.57020819,0.78522068,-0.14800359,0.19075118,1.86374890,0.41470406,1.16552630,0.41470424,2.90116573,1.80094462,1.16552630,1.80094476,2.10564999,0.01225946,0.01644754,-0.06407076,0.69494526,0.00000000,0.00000000,0.00000000,0.61448867,0.00000000,0.00000000,-0.00000000,0.64256796,-4.57343197,-0.17664006,-8.56155872,10291009.21005011,0.00000000,0.00000000,0.00000000,7348085.28795838,0.00000000,0.00000000,-0.00000000,9135388.76920938,-0.69723473,1.77019683,2.10311490,0.02435727,-0.22854858,0.02252886,0.97296697
-0.32386932,0.57002181,0.78533548,-0.14810520,0.19075660,1.86076357,0.41380671,1.16328165,0.41380684,2.89624398,1.79778586,1.16328165,1.79778600,2.10282548,0.00909472,0.01220624,-0.06138658,0.69494526,0.00000000,0.00000000,0.00000000,0.61448867,0.00000000,0.00000000,-0.00000000,0.64256796,-4.56863403,-0.17897892,-8.57111168,10291009.21005011,0.00000000,0.00000000,0.00000000,7348085.28795838,0.00000000,0.00000000,-0.00000000,9135388.76920938,-0.69717662,1.77007046,2.10321140,0.02420954,-0.22851481,0.02260562,0.97297681
-0.31892955,0.56989992,0.78541100,-0.14817284,0.19075754,1.85883074,0.41322234,1.16183311,0.41322220,2.89302329,1.79572532,1.16183311,1.79572532,2.10100472,0.01277201,0.01802938,-0.06244398,0.69494526,0.00000000,0.00000000,0.00000000,0.61448867,0.00000000,0.00000000,-0.00000000,0.64256796,-4.57817841,-0.17430605,-8.58781433,10291009.21005011,0.00000000,0.00000000,0.00000000,7348085.28795838,0.00000000,0.00000000,-0.00000000,9135388.76920938,-0.69711717,1.76994504,2.10330787,0.02406059,-0.22847846,0.02268408,0.97298721
-0.30410945,0.56954503,0.78562373,-0.14837244,0.19078633,1.85309447,0.41156542,1.15752792,0.41156542,2.88358178,1.78964979,1.15752806,1.78964938,2.09553469,0.00800770,0.01377003,-0.05651714,0.69494526,0.00000000,0.00000000,0.00000000,0.61448867,0.00000000,0.00000000,-0.00000000,0.64256796,-4.60678434,-0.16506314,-8.61404800,10291009.21005011,0.00000000,0.00000000,0.00000000,7348085.28795838,0.00000000,0.00000000,-0.00000000,9135388.76920938,-0.69694195,1.76959317,2.10358112,0.02363637,-0.22835346,0.02290357,0.97302181
-0.28928936,0.56925243,0.78579760,-0.14846259,0.19087343,1.84831802,0.41018153,1.15399459,0.41018133,2.87647356,1.78497447,1.15399452,1.78497475,2.09127148,-0.00371203,0.01890304,-0.04245477,0.69494526,0.00000000,0.00000000,0.00000000,0.61448867,0.00000000,0.00000000,-0.00000000,0.64256796,-4.61407518,-0.16273969,-8.73820400,10291009.21005011,0.00000000,0.00000000,0.00000000,7348085.28795838,0.00000000,0.00000000,-0.00000000,9135388.76920938,-0.69672142,1.76917664,2.10390720,0.02315077,-0.22814119,0.02310586,0.97307850
-0.27446952,0.56903738,0.78592288,-0.14844608,0.19101173,1.84473995,0.40914406,1.15140336,0.40914409,2.87203082,1.78188954,1.15140329,1.78188940,2.08837189,-0.01330040,0.01985016,-0.03220539,0.69494526,0.00000000,0.00000000,0.00000000,0.61448867,0.00000000,0.00000000,-0.00000000,0.64256796,-4.61158323,-0.15556455,-8.68327618,10291009.21005011,0.00000000,0.00000000,0.00000000,7348085.28795838,0.00000000,0.00000000,-0.00000000,9135388.76920938,-0.69651693,1.76880708,2.10419477,0.02276524,-0.22790093,0.02319442,0.97314178
-0.26952949,0.56897593,0.78595757,-0.14842837,0.19106582,1.84369312,0.40884447,1.15065339,0.40884457,2.87088134,1.78105175,1.15065339,1.78105175,2.08756430,-0.01384315,0.01984239,-0.02787738,0.69494526,0.00000000,0.00000000,0.00000000,0.61448867,0.00000000,0.00000000,-0.00000000,0.64256796,-4.60203886,-0.16262397,-8.69045162,10291009.21005011,0.00000000,0.00000000,0.00000000,7348085.28795838,0.00000000,0.00000000,-0.00000000,9135388.76920938,-0.69647934,1.76874040,2.10424595,0.02270140,-0.22785621,0.02320277,0.97315355
-0.26458945,0.56892282,0.78598851,-0.14840207,0.19111712,1.84280407,0.40858331,1.15002726,0.40858331,2.87000421,1.78039902,1.15002720,1.78039861,2.08693512,-0.01865173,0.02399832,-0.02463538,0.69494526,0.00000000,0.00000000,0.00000000,0.61448867,0.00000000,0.00000000,-0.00000000,0.64256796,-4.59485435,-0.17925724,-8.69763184,10291009.21005011,0.00000000,0.00000000,0.00000000,7348085.28795838,0.00000000,0.00000000,-0.00000000,9135388.76920938,-0.69640122,1.76860284,2.10435053,0.02257567,-0.22776533,0.02321395,0.97317748
-0.25964942,0.56886214,0.78602552,-0.14837736,0.19116476,1.84181529,0.40826408,1.14932017,0.40826429,2.86896971,1.77963811,1.14932017,1.77963839,2.08622061,-0.01866472,0.02557532,-0.02354904,0.69494526,0.00000000,0.00000000,0.00000000,0.61448867,0.00000000,0.00000000,-0.00000000,0.64256796,-4.58053780,-0.18149334,-8.69764233,10291009.21005011,0.00000000,0.00000000,0.00000000,7348085.28795838,0.00000000,0.00000000,-0.00000000,9135388.76920938,-0.69632669,1.76847289,2.10444799,0.02246418,-0.22768360,0.02321816,0.97319908
-0.25470939,0.56880957,0.78605461,-0.14836837,0.19120853,1.84091821,0.40801519,1.14867354,0.40801523,2.86796763,1.77890213,1.14867361,1.77890213,2.08550195,-0.01809859,0.02084834,-0.02192692,0.69494526,0.00000000,0.00000000,0.00000000,0.61448867,0.00000000,0.00000000,-0.00000000,0.64256796,-4.56394100,-0.16937515,-8.69287586,10291009.21005011,0.00000000,0.00000000,0.00000000,7348085.28795838,0.00000000,0.00000000,-0.00000000,9135388.76920938,-0.69624940,1.76833937,2.10454666,0.02235679,-0.22760659,0.02321741,0.97321959
-0.23988955,0.56863570,0.78615642,-0.14837787,0.19129953,1.83807805,0.40716576,1.14660399,0.40716601,2.86435603,1.77638377,1.14660420,1.77638363,2.08316034,-0.01757579,0.02190604,-0.02463543,0.69494526,0.00000000,0.00000000,0.00000000,0.61448867,0.00000000,0.00000000,-0.00000000,0.64256796,-4.54954529,-0.18116486,-8.61887646,10291009.21005011,0.00000000,0.00000000,0.00000000,7348085.28795838,0.00000000,0.00000000,-0.00000000,9135388.76920938,-0.69598069,1.76788443,2.10487118,0.02204202,-0.22741571,0.02318692,0.97327212
-0.22506945,0.56842291,0.78630060,-0.14848407,0.19125703,1.83492192,0.40599697,1.14419125,0.40599693,2.85931681,1.77318193,1.14419111,1.77318179,2.08039873,-0.02071237,0.01503694,-0.02303352,0.69494526,0.00000000,0.00000000,0.00000000,0.61448867,0.00000000,0.00000000,-0.00000000,0.64256796,-4.55914211,-0.14784813,-8.68808079,10291009.21005011,0.00000000,0.00000000,0.00000000,7348085.28795838,0.00000000,0.00000000,-0.00000000,9135388.76920938,-0.69570773,1.76743283,2.10518148,0.02179460,-0.22725382,0.02309254,0.97331774
-0.22012942,0.56838584,0.78636700,-0.14839639,0.19116230,1.83494422,0.40556262,1.14421244,0.40556266,2.85975898,1.77367147,1.14421272,1.77367133,2.08113789,-0.01916481,0.02188947,-0.02301188,0.69494526,0.00000000,0.00000000,0.00000000,0.61448867,0.00000000,0.00000000,-0.00000000,0.64256796,-4.55437040,-0.13347843,-8.73104477,10291009.21005011,0.00000000,0.00000000,0.00000000,7348085.28795838,0.00000000,0.00000000,-0.00000000,9135388.76920938,-0.69566809,1.76736785,2.10522564,0.02176300,-0.22722693,0.02307264,0.97332520
-0.20283944,0.56828302,0.78659463,-0.14794156,0.19088379,1.83550843,0.40386020,1.14457648,0.40386013,2.86353902,1.77630481,1.14457642,1.77630495,2.08434223,-0.01918715,0.02662289,-0.02245212,0.69494526,0.00000000,0.00000000,0.00000000,0.61448867,0.00000000,0.00000000,-0.00000000,0.64256796,-4.56638002,-0.11211732,-8.75967503,10291009.21005011,0.00000000,0.00000000,0.00000000,7348085.28795838,0.00000000,0.00000000,-0.00000000,9135388.76920938,-0.69534618,1.76684489,2.10557906,0.02152751,-0.22697866,0.02287483,0.97339303
-0.19789941,0.56825894,0.78665692,-0.14779665,0.19081086,1.83575528,0.40339337,1.14475172,0.40339330,2.86485832,1.77720245,1.14475186,1.77720258,2.08538421,-0.02342868,0.02605266,-0.02084184,0.69494526,0.00000000,0.00000000,0.00000000,0.61448867,0.00000000,0.00000000,-0.00000000,0.64256796,-4.54729128,-0.11430325,-8.75013828,10291009.21005011,0.00000000,0.00000000,0.00000000,7348085.28795838,0.00000000,0.00000000,-0.00000000,9135388.76920938,-0.69530337,1.76677592,2.10562555,0.02149757,-0.22694247,0.02284584,0.97340281
-0.19295937,0.56823856,0.78671688,-0.14764534,0.19074149,1.83605422,0.40293829,1.14496851,0.40293818,2.86631753,1.77817530,1.14496823,1.77817530,2.08649198,-0.02291499,0.02605599,-0.01922571,0.69494526,0.00000000,0.00000000,0.00000000,0.61448867,0.00000000,0.00000000,-0.00000000,0.64256796,-4.53048277,-0.10697757,-8.73580647,10291009.21005011,0.00000000,0.00000000,0.00000000,7348085.28795838,0.00000000,0.00000000,-0.00000000,9135388.76920938,-0.69521139,1.76662826,2.10572507,0.02143304,-0.22686493,0.02278558,0.97342372
-0.18801934,0.56821936,0.78677595,-0.14749105,0.19067450,1.83637116,0.40249106,1.14520358,0.40249117,2.86781664,1.77917780,1.14520344,1.77917766,2.08763107,-0.02346776,0.02920515,-0.01813691,0.69494526,0.00000000,0.00000000,0.00000000,0.61448867,0.00000000,0.00000000,-0.00000000,0.64256796,-4.52809668,-0.09740614,-8.72624874,10291009.21005011,0.00000000,0.00000000,0.00000000,7348085.28795838,0.00000000,0.00000000,-0.00000000,9135388.76920938,-0.69511217,1.76646987,2.10583179,0.02136214,-0.22678492,0.02272815,0.97344527
-0.17319950,0.56819463,0.78692877,-0.14698502,0.19050831,1.83776208,0.40132708,1.14626523,0.40132701,2.87337311,1.78279757,1.14626530,1.78279771,2.09153329,-0.02931956,0.02966828,-0.01382699,0.69494526,0.00000000,0.00000000,0.00000000,0.61448867,0.00000000,0.00000000,-0.00000000,0.64256796,-4.51372766,-0.08294097,-8.70236492,10291009.21005011,0.00000000,0.00000000,0.00000000,7348085.28795838,0.00000000,0.00000000,-0.00000000,9135388.76920938,-0.69473947,1.76588454,2.10622696,0.02108204,-0.22655520,0.02261356,0.97350753
-0.15343937,0.56816047,0.78712529,-0.14629300,0.19033076,1.83948282,0.39976100,1.14760046,0.39976100,2.88082598,1.78754755,1.14760046,1.78754769,2.09663665,-0.02134760,0.02817400,-0.01596882,0.69494526,0.00000000,0.00000000,0.00000000,0.61448867,0.00000000,0.00000000,-0.00000000,0.64256796,-4.44219780,-0.05831779,-8.68567753,10291009.21005011,0.00000000,0.00000000,0.00000000,7348085.28795838,0.00000000,0.00000000,-0.00000000,9135388.76920938,-0.69442208,1.76539835,2.10656089,0.02085345,-0.22643714,0.02257675,0.97354078
-0.14849934,0.56815100,0.78717643,-0.14613724,0.19026718,1.83993012,0.39936995,1.14793666,0.39936974,2.88254395,1.78867583,1.14793652,1.78867583,2.09788406,-0.01712057,0.02979449,-0.01487053,0.69494526,0.00000000,0.00000000,0.00000000,0.61448867,0.00000000,0.00000000,-0.00000000,0.64256796,-4.44696999,-0.05359478,-8.68328190,10291009.21005011,0.00000000,0.00000000,0.00000000,7348085.28795838,0.00000000,0.00000000,-0.00000000,9135388.76920938,-0.69432944,1.76525824,2.10665938,0.02079061,-0.22640373,0.02256365,0.97355019
-0.13367950,0.56809211,0.78734642,-0.14570390,0.19007191,1.84076168,0.39803412,1.14853682,0.39803402,2.88668305,1.79142401,1.14853668,1.79142387,2.10104573,-0.01439798,0.02193780,-0.02191605,0.69494526,0.00000000,0.00000000,0.00000000,0.61448867,0.00000000,0.00000000,-0.00000000,0.64256796,-4.41836357,-0.06999747,-8.64511776,10291009.21005011,0.00000000,0.00000000,0.00000000,7348085.28795838,0.00000000,0.00000000,-0.00000000,9135388.76920938,-0.69401219,1.76478344,2.10700446,0.02058798,-0.22625054,0.02248255,0.97359199
-0.12873947,0.56806117,0.78740716,-0.14557928,0.19000824,1.84082152,0.39754513,1.14856528,0.39754507,2.88760451,1.79204751,1.14856528,1.79204751,2.10182659,-0.01436891,0.01931082,-0.02625215,0.69494526,0.00000000,0.00000000,0.00000000,0.61448867,0.00000000,0.00000000,-0.00000000,0.64256796,-4.41120529,-0.05798930,-8.65466118,10291009.21005011,0.00000000,0.00000000,0.00000000,7348085.28795838,0.00000000,0.00000000,-0.00000000,9135388.76920938,-0.69392963,1.76466109,2.10709625,0.02053737,-0.22620074,0.02245342,0.97360530
-0.12379944,0.56802934,0.78747112,-0.14544907,0.18993816,1.84090408,0.39704073,1.14861494,0.39704080,2.88856808,1.79271990,1.14861508,1.79271990,2.10267809,-0.01544699,0.02298188,-0.02786948,0.69494526,0.00000000,0.00000000,0.00000000,0.61448867,0.00000000,0.00000000,-0.00000000,0.64256796,-4.40404749,-0.04120794,-8.68807507,10291009.21005011,0.00000000,0.00000000,0.00000000,7348085.28795838,0.00000000,0.00000000,-0.00000000,9135388.76920938,-0.69383191,1.76451693,2.10720593,0.02047797,-0.22613696,0.02241575,0.97362224
-0.11885941,0.56799912,0.78753531,-0.14532316,0.18985870,1.84103124,0.39654610,1.14869286,0.39654613,2.88955105,1.79341391,1.14869300,1.79341404,2.10355689,-0.01173843,0.02459816,-0.02676375,0.69494526,0.00000000,0.00000000,0.00000000,0.61448867,0.00000000,0.00000000,-0.00000000,0.64256796,-4.40176725,-0.03878661,-8.70957088,10291009.21005011,0.00000000,0.00000000,0.00000000,7348085.28795838,0.00000000,0.00000000,-0.00000000,9135388.76920938,-0.69372879,1.76436562,2.10732277,0.02041559,-0.22606510,0.02237310,0.97364122
-0.10403931,0.56791610,0.78772247,-0.14492975,0.18963103,1.84151442,0.39508893,1.14900724,0.39508886,2.89277367,1.79567573,1.14900717,1.79567573,2.10633734,-0.01864422,0.02294633,-0.02300999,0.69494526,0.00000000,0.00000000,0.00000000,0.61448867,0.00000000,0.00000000,-0.00000000,0.64256796,-4.42072296,-0.03661276,-8.68328190,10291009.21005011,0.00000000,0.00000000,0.00000000,7348085.28795838,0.00000000,0.00000000,-0.00000000,9135388.76920938,-0.69342314,1.76392338,2.10767345,0.02023465,-0.22586396,0.02224307,0.97369465
-0.08674933,0.56786215,0.78789139,-0.14442682,0.18947452,1.84237188,0.39366342,1.14963455,0.39366335,2.89765387,1.79883504,1.14963462,1.79883504,2.10983798,-0.01863312,0.01663125,-0.01545364,0.69494526,0.00000000,0.00000000,0.00000000,0.61448867,0.00000000,0.00000000,-0.00000000,0.64256796,-4.43737316,-0.00099437,-8.55191994,10291009.21005011,0.00000000,0.00000000,0.00000000,7348085.28795838,0.00000000,0.00000000,-0.00000000,9135388.76920938,-0.69311217,1.76348577,2.10803312,0.02006721,-0.22573749,0.02211848,0.97373028
-0.08180955,0.56785858,0.78792530,-0.14427720,0.18945824,1.84269589,0.39335683,1.14988833,0.39335697,2.89929787,1.79985499,1.14988839,1.79985485,2.11088342,-0.01970739,0.01609130,-0.00950488,0.69494526,0.00000000,0.00000000,0.00000000,0.61448867,0.00000000,0.00000000,-0.00000000,0.64256796,-4.45407534,0.00837640,-8.54951191,10291009.21005011,0.00000000,0.00000000,0.00000000,7348085.28795838,0.00000000,0.00000000,-0.00000000,9135388.76920938,-0.69306364,1.76341862,2.10808974,0.02004441,-0.22572166,0.02209651,0.97373492
-0.07686952,0.56785774,0.78795427,-0.14412798,0.18945368,1.84302294,0.39308279,1.15015000,0.39308276,2.90097152,1.80087231,1.15014993,1.80087231,2.11190351,-0.02182027,0.01554375,-0.00788191,0.69494526,0.00000000,0.00000000,0.00000000,0.61448867,0.00000000,0.00000000,-0.00000000,0.64256796,-4.45176888,0.02750143,-8.56860352,10291009.21005011,0.00000000,0.00000000,0.00000000,7348085.28795838,0.00000000,0.00000000,-0.00000000,9135388.76920938,-0.69297370,1.76329497,2.10819514,0.02000547,-0.22569285,0.02205201,0.97374341
-0.07192949,0.56786728,0.78797460,-0.14397374,0.18945785,1.84348159,0.39287930,1.15051972,0.39287934,2.90290726,1.80204201,1.15051993,1.80204215,2.11304453,-0.02078114,0.01660371,-0.00300559,0.69494526,0.00000000,0.00000000,0.00000000,0.61448867,0.00000000,0.00000000,-0.00000000,0.64256796,-4.43983841,0.04433295,-8.58291912,10291009.21005011,0.00000000,0.00000000,0.00000000,7348085.28795838,0.00000000,0.00000000,-0.00000000,9135388.76920938,-0.69287840,1.76316505,2.10830743,0.01996929,-0.22566335,0.02199910,0.97375219
-0.06698945,0.56787837,0.78799140,-0.14381701,0.18947428,1.84392889,0.39269129,1.15088632,0.39269150,2.90486959,1.80320866,1.15088632,1.80320838,2.11416228,-0.02288400,0.01500529,-0.00355224,0.69494526,0.00000000,0.00000000,0.00000000,0.61448867,0.00000000,0.00000000,-0.00000000,0.64256796,-4.45182228,0.05614529,-8.58290577,10291009.21005011,0.00000000,0.00000000,0.00000000,7348085.28795838,0.00000000,0.00000000,-0.00000000,9135388.76920938,-0.69278485,1.76303863,2.10841819,0.01993938,-0.22563582,0.02194086,0.97376049
-0.06204942,0.56789374,0.78800309,-0.14366135,0.18949717,1.84441386,0.39254580,1.15128596,0.39254577,2.90691171,1.80441132,1.15128603,1.80441132,2.11529597,-0.02131017,0.01659802,-0.00137905,0.69494526,0.00000000,0.00000000,0.00000000,0.61448867,0.00000000,0.00000000,-0.00000000,0.64256796,-4.45659399,0.06325488,-8.58289623,10291009.21005011,0.00000000,0.00000000,0.00000000,7348085.28795838,0.00000000,0.00000000,-0.00000000,9135388.76920938,-0.69269971,1.76292451,2.10851939,0.01991747,-0.22561233,0.02188190,0.97376771
-0.05710939,0.56791663,0.78800929,-0.14350417,0.18952213,1.84500411,0.39245053,1.15176893,0.39245067,2.90912781,1.80572647,1.15176893,1.80572633,2.11652273,-0.02080724,0.01607313,0.00402185,0.69494526,0.00000000,0.00000000,0.00000000,0.61448867,0.00000000,0.00000000,-0.00000000,0.64256796,-4.43021488,0.06829187,-8.60915852,10291009.21005011,0.00000000,0.00000000,0.00000000,7348085.28795838,0.00000000,0.00000000,-0.00000000,9135388.76920938,-0.69261277,1.76280889,2.10862302,0.01990029,-0.22559009,0.02181611,0.97377469
-0.05216936,0.56794649,0.78801119,-0.14334194,0.18954745,1.84571709,0.39239312,1.15234893,0.39239319,2.91155503,1.80717834,1.15234886,1.80717848,2.11787764,-0.02242154,0.01868468,0.00672990,0.69494526,0.00000000,0.00000000,0.00000000,0.61448867,0.00000000,0.00000000,-0.00000000,0.64256796,-4.41351223,0.07085405,-8.63781643,10291009.21005011,0.00000000,0.00000000,0.00000000,7348085.28795838,0.00000000,0.00000000,-0.00000000,9135388.76920938,-0.69232766,1.76243610,2.10896298,0.01985859,-0.22552636,0.02159711,0.97379519
-0.03734952,0.56804866,0.78801572,-0.14286138,0.18958513,1.84818518,0.39226595,1.15432608,0.39226609,2.91918050,1.81179659,1.15432608,1.81179631,2.12224267,-0.01609052,0.02295651,0.00675616,0.69494526,0.00000000,0.00000000,0.00000000,0.61448867,0.00000000,0.00000000,-0.00000000,0.64256796,-4.36337805,0.05467226,-8.64741135,10291009.21005011,0.00000000,0.00000000,0.00000000,7348085.28795838,0.00000000,0.00000000,-0.00000000,9135388.76920938,-0.69226765,1.76235886,2.10903412,0.01984783,-0.22551395,0.02155849,0.97379914
-0.02252942,0.56814635,0.78803259,-0.14240867,0.18956301,1.85075590,0.39207860,1.15634216,0.39207832,2.92660483,1.81637564,1.15634202,1.81637550,2.12665355,-0.01126409,0.01669799,0.00188532,0.69494526,0.00000000,0.00000000,0.00000000,0.61448867,0.00000000,0.00000000,-0.00000000,0.64256796,-4.29659462,0.00764525,-8.46366024,10291009.21005011,0.00000000,0.00000000,0.00000000,7348085.28795838,0.00000000,0.00000000,-0.00000000,9135388.76920938,-0.69204107,1.76207272,2.10930004,0.01981938,-0.22546595,0.02142837,0.97381370
-0.01511950,0.56818217,0.78804386,-0.14221002,0.18955806,1.85175619,0.39194555,1.15712135,0.39194544,2.92973519,1.81827854,1.15712149,1.81827868,2.12846959,-0.00907364,0.00830859,-0.00137024,0.69494526,0.00000000,0.00000000,0.00000000,0.61448867,0.00000000,0.00000000,-0.00000000,0.64256796,-4.30144596,0.00044260,-8.42308426,10291009.21005011,0.00000000,0.00000000,0.00000000,7348085.28795838,0.00000000,0.00000000,-0.00000000,9135388.76920938,-0.69198310,1.76200143,2.10936721,0.01982379,-0.22545260,0.02139159,0.97381751
-0.01017947,0.56819725,0.78805441,-0.14209022,0.18955880,1.85225266,0.39183057,1.15751587,0.39183064,2.93147505,1.81932828,1.15751580,1.81932814,2.12948442,-0.00801714,0.01042467,-0.00460911,0.69494526,0.00000000,0.00000000,0.00000000,0.61448867,0.00000000,0.00000000,-0.00000000,0.64256796,-4.30383205,-0.00435565,-8.43980026,10291009.21005011,0.00000000,0.00000000,0.00000000,7348085.28795838,0.00000000,0.00000000,-0.00000000,9135388.76920938,-0.69191370,1.76191731,2.10944698,0.01983810,-0.22543619,0.02134271,0.97382209
-0.00523944,0.56820661,0.78806758,-0.14197512,0.18956214,1.85263900,0.39168380,1.15782118,0.39168384,2.93303483,1.82025320,1.15782118,1.82025306,2.13037375,-0.00745919,0.00675020,-0.00732502,0.69494526,0.00000000,0.00000000,0.00000000,0.61448867,0.00000000,0.00000000,-0.00000000,0.64256796,-4.29664707,-0.00428283,-8.47800159,10291009.21005011,0.00000000,0.00000000,0.00000000,7348085.28795838,0.00000000,0.00000000,-0.00000000,9135388.76920938,-0.69184082,1.76183053,2.10952974,0.01986355,-0.22541915,0.02128497,0.97382678
-0.00029940,0.56820929,0.78808594,-0.14187206,0.18955480,1.85293766,0.39150317,1.15805369,0.39150303,2.93434943,1.82103420,1.15805348,1.82103434,2.13115225,-0.00107814,0.00471343,-0.01001830,0.69494526,0.00000000,0.00000000,0.00000000,0.61448867,0.00000000,0.00000000,-0.00000000,0.64256796,-4.29664707,0.00526351,-8.51141834,10291009.21005011,0.00000000,0.00000000,0.00000000,7348085.28795838,0.00000000,0.00000000,-0.00000000,9135388.76920938,-0.69177366,1.76175201,2.10960487,0.01989623,-0.22540432,0.02122515,0.97383085
0.00464063,0.56821877,0.78810072,-0.14177456,0.18953785,1.85335988,0.39137483,1.15837894,0.39137496,2.93577955,1.82192089,1.15837915,1.82192103,2.13203340,-0.00004446,0.00577306,-0.00623106,0.69494526,0.00000000,0.00000000,0.00000000,0.61448867,0.00000000,0.00000000,-0.00000000,0.64256796,-4.30134010,0.00997928,-8.54482841,10291009.21005011,0.00000000,0.00000000,0.00000000,7348085.28795838,0.00000000,0.00000000,-0.00000000,9135388.76920938,-0.69170534,1.76167362,2.10967990,0.01993740,-0.22539041,0.02115772,0.97383470
0.00958066,0.56822604,0.78811711,-0.14167899,0.18951949,1.85375564,0.39122716,1.15868051,0.39122709,2.93714429,1.82276492,1.15868058,1.82276450,2.13287881,-0.00108997,0.00471192,-0.00894263,0.69494526,0.00000000,0.00000000,0.00000000,0.61448867,0.00000000,0.00000000,-0.00000000,0.64256796,-4.30611229,0.00754251,-8.57109070,10291009.21005011,0.00000000,0.00000000,0.00000000,7348085.28795838,0.00000000,0.00000000,-0.00000000,9135388.76920938,-0.69164483,1.76160543,2.10974476,0.01997607,-0.22537725,0.02109551,0.97383830
0.01452069,0.56823260,0.78813326,-0.14158262,0.18950471,1.85412314,0.39107392,1.15896081,0.39107395,2.93849240,1.82359357,1.15896095,1.82359357,2.13370331,-0.00213806,0.00417611,-0.00894024,0.69494526,0.00000000,0.00000000,0.00000000,0.61448867,0.00000000,0.00000000,-0.00000000,0.64256796,-4.31812191,0.00026459,-8.58303452,10291009.21005011,0.00000000,0.00000000,0.00000000,7348085.28795838,0.00000000,0.00000000,-0.00000000,9135388.76920938,-0.69158526,1.76153936,2.10980674,0.02001068,-0.22536110,0.02103597,0.97384261
0.02934053,0.56826282,0.78817046,-0.14129294,0.18947566,1.85531487,0.39068546,1.15986718,0.39068525,2.94275589,1.82619131,1.15986711,1.82619145,2.13622472,-0.00530077,-0.00059215,-0.00191893,0.69494526,0.00000000,0.00000000,0.00000000,0.61448867,0.00000000,0.00000000,-0.00000000,0.64256796,-4.31581545,0.00268350,-8.60214138,10291009.21005011,0.00000000,0.00000000,0.00000000,7348085.28795838,0.00000000,0.00000000,-0.00000000,9135388.76920938,-0.69138379,1.76132273,2.10999601,0.02002341,-0.22524992,0.02090534,0.97387089
0.04416063,0.56832474,0.78818107,-0.14098835,0.18947275,1.85691302,0.39047075,1.16108681,0.39047078,2.94786078,1.82927042,1.16108702,1.82927042,2.13911350,-0.00690214,-0.00376866,0.00563861,0.69494526,0.00000000,0.00000000,0.00000000,0.61448867,0.00000000,0.00000000,-0.00000000,0.64256796,-4.31334972,-0.00923159,-8.57349586,10291009.21005011,0.00000000,0.00000000,0.00000000,7348085.28795838,0.00000000,0.00000000,-0.00000000,9135388.76920938,-0.69123290,1.76116426,2.11010967,0.01988046,-0.22511126,0.02092578,0.97390544
0.04910066,0.56834894,0.78818107,-0.14088713,0.18947530,1.85749108,0.39041908,1.16152843,0.39041929,2.94963887,1.83033858,1.16152863,1.83033858,2.14010713,-0.00954251,-0.00432053,0.00346507,0.69494526,0.00000000,0.00000000,0.00000000,0.61448867,0.00000000,0.00000000,-0.00000000,0.64256796,-4.30380535,-0.01151785,-8.59499264,10291009.21005011,0.00000000,0.00000000,0.00000000,7348085.28795838,0.00000000,0.00000000,-0.00000000,9135388.76920938,-0.69120403,1.76113392,2.11012787,0.01983786,-0.22508192,0.02094256,0.97391273
0.05404069,0.56838250,0.78817534,-0.14077660,0.18948053,1.85820960,0.39041423,1.16207760,0.39041416,2.95172310,1.83159998,1.16207747,1.83159998,2.14126256,-0.01274247,-0.00540928,0.01048445,0.69494526,0.00000000,0.00000000,0.00000000,0.61448867,0.00000000,0.00000000,-0.00000000,0.64256796,-4.31091070,-0.02353085,-8.59738159,10291009.21005011,0.00000000,0.00000000,0.00000000,7348085.28795838,0.00000000,0.00000000,-0.00000000,9135388.76920938,-0.69115782,1.76108524,2.11015431,0.01976227,-0.22503327,0.02097416,0.97392482
0.05898047,0.56841975,0.78816521,-0.14066499,0.18949410,1.85895819,0.39043013,1.16265040,0.39043002,2.95388879,1.83289462,1.16265026,1.83289462,2.14243059,-0.01538739,-0.00754137,0.01317764,0.69494526,0.00000000,0.00000000,0.00000000,0.61448867,0.00000000,0.00000000,-0.00000000,0.64256796,-4.31568289,-0.02358102,-8.60454178,10291009.21005011,0.00000000,0.00000000,0.00000000,7348085.28795838,0.00000000,0.00000000,-0.00000000,9135388.76920938,-0.69111665,1.76104173,2.11017484,0.01969019,-0.22498815,0.02100315,0.97393609
0.06392050,0.56846297,0.78815079,-0.14055097,0.18950869,1.85979612,0.39047948,1.16329121,0.39047941,2.95622153,1.83428956,1.16329107,1.83428956,2.14368271,-0.01486559,-0.00806412,0.01805074,0.69494526,0.00000000,0.00000000,0.00000000,0.61448867,0.00000000,0.00000000,-0.00000000,0.64256796,-4.31332350,-0.01400718,-8.62363720,10291009.21005011,0.00000000,0.00000000,0.00000000,7348085.28795838,0.00000000,0.00000000,-0.00000000,9135388.76920938,-0.69107616,1.76099877,2.11019203,0.01961900,-0.22494209,0.02102691,0.97394765
0.06886053,0.56850553,0.78813726,-0.14044157,0.18951856,1.86064375,0.39052360,1.16393881,0.39052380,2.95850607,1.83566095,1.16393895,1.83566067,2.14492874,-0.01485610,-0.00753592,0.01372256,0.69494526,0.00000000,0.00000000,0.00000000,0.61448867,0.00000000,0.00000000,-0.00000000,0.64256796,-4.31570959,-0.01403226,-8.62841129,10291009.21005011,0.00000000,0.00000000,0.00000000,7348085.28795838,0.00000000,0.00000000,-0.00000000,9135388.76920938,-0.69103840,1.76095848,2.11020511,0.01955631,-0.22489773,0.02103931,0.97395889
0.07380056,0.56854635,0.78812402,-0.14033170,0.18953250,1.86144192,0.39056256,1.16454818,0.39056266,2.96074157,1.83700075,1.16454804,1.83700047,2.14613237,-0.01751727,-0.00756514,0.01750340,0.69494526,0.00000000,0.00000000,0.00000000,0.61448867,0.00000000,0.00000000,-0.00000000,0.64256796,-4.32764006,-0.01893085,-8.62363338,10291009.21005011,0.00000000,0.00000000,0.00000000,7348085.28795838,0.00000000,0.00000000,-0.00000000,9135388.76920938,-0.69100290,1.76092035,2.11021438,0.01950270,-0.22485538,0.02103904,0.97396974
0.07874059,0.56859303,0.78810710,-0.14022499,0.18954203,1.86234136,0.39063424,1.16523124,0.39063428,2.96310451,1.83841522,1.16523124,1.83841522,2.14740582,-0.01274072,-0.00856796,0.01751422,0.69494526,0.00000000,0.00000000,0.00000000,0.61448867,0.00000000,0.00000000,-0.00000000,0.64256796,-4.33718443,-0.02857752,-8.61647320,10291009.21005011,0.00000000,0.00000000,0.00000000,7348085.28795838,0.00000000,0.00000000,-0.00000000,9135388.76920938,-0.69096816,1.76088270,2.11022007,0.01945712,-0.22481420,0.02102420,0.97398048
0.09603058,0.56874138,0.78805327,-0.13989988,0.18956073,1.86522349,0.39086630,1.16740607,0.39086630,2.97057843,1.84289813,1.16740607,1.84289813,2.15143105,-0.00740836,-0.01166645,0.01319174,0.69494526,0.00000000,0.00000000,0.00000000,0.61448867,0.00000000,0.00000000,-0.00000000,0.64256796,-4.32286787,-0.05706607,-8.53772259,10291009.21005011,0.00000000,0.00000000,0.00000000,7348085.28795838,0.00000000,0.00000000,-0.00000000,9135388.76920938,-0.69086678,1.76076978,2.11020873,0.01938734,-0.22471221,0.02086459,0.97400884
0.11085067,0.56884199,0.78801817,-0.13966082,0.18958113,1.86718637,0.39096244,1.16887331,0.39096261,2.97594984,1.84608875,1.16887331,1.84608875,2.15426747,-0.01160496,-0.01644035,0.00938182,0.69494526,0.00000000,0.00000000,0.00000000,0.61448867,0.00000000,0.00000000,-0.00000000,0.64256796,-4.34914064,-0.07881884,-8.57592869,10291009.21005011,0.00000000,0.00000000,0.00000000,7348085.28795838,0.00000000,0.00000000,-0.00000000,9135388.76920938,-0.69080106,1.76069257,2.11016003,0.01941799,-0.22470480,0.02068067,0.97401386
0.11579045,0.56886709,0.78801066,-0.13958503,0.18959291,1.86767855,0.39094499,1.16923652,0.39094492,2.97749521,1.84698279,1.16923638,1.84698251,2.15505110,-0.01052863,-0.01905880,0.00937822,0.69494526,0.00000000,0.00000000,0.00000000,0.61448867,0.00000000,0.00000000,-0.00000000,0.64256796,-4.37061548,-0.07665800,-8.58546352,10291009.21005011,0.00000000,0.00000000,0.00000000,7348085.28795838,0.00000000,0.00000000,-0.00000000,9135388.76920938,-0.69079339,1.76068322,2.11015037,0.01942740,-0.22471178,0.02065847,0.97401254
0.12073048,0.56888533,0.78801066,-0.13950650,0.18959610,1.86811005,0.39087074,1.16955499,0.39087077,2.97892201,1.84782391,1.16955513,1.84782432,2.15582545,-0.01106372,-0.01695932,0.00667606,0.69494526,0.00000000,0.00000000,0.00000000,0.61448867,0.00000000,0.00000000,-0.00000000,0.64256796,-4.38731813,-0.08399334,-8.59023571,10291009.21005011,0.00000000,0.00000000,0.00000000,7348085.28795838,0.00000000,0.00000000,-0.00000000,9135388.76920938,-0.69077630,1.76066208,2.11012457,0.01945516,-0.22473990,0.02061301,0.97400646
0.12567052,0.56890535,0.78800738,-0.13943368,0.18960302,1.86853643,0.39082059,1.16986625,0.39082063,2.98032941,1.84864286,1.16986639,1.84864286,2.15655450,-0.01211879,-0.01802221,0.00721162,0.69494526,0.00000000,0.00000000,0.00000000,0.61448867,0.00000000,0.00000000,-0.00000000,0.64256796,-4.39686251,-0.08409367,-8.58545399,10291009.21005011,0.00000000,0.00000000,0.00000000,7348085.28795838,0.00000000,0.00000000,-0.00000000,9135388.76920938,-0.69076085,1.76064265,2.11009545,0.01949118,-0.22478836,0.02058192,0.97399521
0.13061055,0.56892151,0.78800666,-0.13936827,0.18960546,1.86890712,0.39075071,1.17013236,0.39075074,2.98158416,1.84936776,1.17013236,1.84936762,2.15720889,-0.00892793,-0.01798783,0.00451688,0.69494526,0.00000000,0.00000000,0.00000000,0.61448867,0.00000000,0.00000000,-0.00000000,0.64256796,-4.40643311,-0.07703182,-8.58066940,10291009.21005011,0.00000000,0.00000000,0.00000000,7348085.28795838,0.00000000,0.00000000,-0.00000000,9135388.76920938,-0.69074644,1.76062432,2.11006267,0.01953740,-0.22486273,0.02056751,0.97397742
0.13555058,0.56893682,0.78800607,-0.13930207,0.18961084,1.86924941,0.39067864,1.17037671,0.39067874,2.98281315,1.85008046,1.17037685,1.85008032,2.15784166,-0.01157292,-0.01959348,0.00612901,0.69494526,0.00000000,0.00000000,0.00000000,0.61448867,0.00000000,0.00000000,-0.00000000,0.64256796,-4.40166140,-0.07698166,-8.57589722,10291009.21005011,0.00000000,0.00000000,0.00000000,7348085.28795838,0.00000000,0.00000000,-0.00000000,9135388.76920938,-0.69073311,1.76060729,2.11002719,0.01959229,-0.22495852,0.02056613,0.97395423
0.14049061,0.56894481,0.78801173,-0.13924065,0.18960848,1.86950526,0.39055303,1.17055139,0.39055296,2.98384598,1.85066933,1.17055153,1.85066933,2.15838939,-0.00679720,-0.01954286,0.00126507,0.69494526,0.00000000,0.00000000,0.00000000,0.61448867,0.00000000,0.00000000,-0.00000000,0.64256796,-4.40158176,-0.07698890,-8.57350159,10291009.21005011,0.00000000,0.00000000,0.00000000,7348085.28795838,0.00000000,0.00000000,-0.00000000,9135388.76920938,-0.69072013,1.76059076,2.10998784,0.01965707,-0.22507435,0.02057148,0.97392605
0.14543064,0.56894928,0.78802085,-0.13918285,0.18959951,1.86972344,0.39041011,1.17069781,0.39041015,2.98476772,1.85121082,1.17069781,1.85121054,2.15890996,-0.00627396,-0.01690635,-0.00197397,0.69494526,0.00000000,0.00000000,0.00000000,0.61448867,0.00000000,0.00000000,-0.00000000,0.64256796,-4.40874004,-0.07706415,-8.59737301,10291009.21005011,0.00000000,0.00000000,0.00000000,7348085.28795838,0.00000000,0.00000000,-0.00000000,9135388.76920938,-0.69070825,1.76057583,2.10994796,0.01972548,-0.22519557,0.02057668,0.97389654
0.16025048,0.56893915,0.78806549,-0.13903396,0.18955377,1.87002376,0.38984874,1.17084728,0.38984871,2.98677659,1.85238384,1.17084714,1.85238384,2.16008270,-0.00624255,-0.01795395,-0.00846641,0.69494526,0.00000000,0.00000000,0.00000000,0.61448867,0.00000000,0.00000000,-0.00000000,0.64256796,-4.44458389,-0.05834287,-8.60211277,10291009.21005011,0.00000000,0.00000000,0.00000000,7348085.28795838,0.00000000,0.00000000,-0.00000000,9135388.76920938,-0.69066669,1.76052756,2.10978471,0.01999618,-0.22564914,0.02054118,0.97378677
0.17507058,0.56889963,0.78813344,-0.13892932,0.18946646,1.86993095,0.38914390,1.17067717,0.38914397,2.98773380,1.85296384,1.17067717,1.85296370,2.16078932,-0.00040728,-0.01683984,-0.01440487,0.69494526,0.00000000,0.00000000,0.00000000,0.61448867,0.00000000,0.00000000,-0.00000000,0.64256796,-4.48270845,-0.04920267,-8.63550091,10291009.21005011,0.00000000,0.00000000,0.00000000,7348085.28795838,0.00000000,0.00000000,-0.00000000,9135388.76920938,-0.69063389,1.76049729,2.10963782,0.02015771,-0.22592362,0.02044873,0.97372174
0.18248050,0.56887275,0.78817362,-0.13886365,0.18942827,1.86978023,0.38873373,1.17051815,0.38873376,2.98814937,1.85322426,1.17051828,1.85322426,2.16112274,-0.00623481,-0.01637315,-0.01441552,0.69494526,0.00000000,0.00000000,0.00000000,0.61448867,0.00000000,0.00000000,-0.00000000,0.64256796,-4.51378012,-0.03759099,-8.64263821,10291009.21005011,0.00000000,0.00000000,0.00000000,7348085.28795838,0.00000000,0.00000000,-0.00000000,9135388.76920938,-0.69062731,1.76049218,2.10960735,0.02017728,-0.22596703,0.02043164,0.97371162
0.18742053,0.56886172,0.78819436,-0.13880634,0.18941706,1.86975641,0.38851164,1.17047978,0.38851185,2.98869100,1.85354633,1.17047991,1.85354633,2.16144661,-0.00467061,-0.01425572,-0.01007625,0.69494526,0.00000000,0.00000000,0.00000000,0.61448867,0.00000000,0.00000000,-0.00000000,0.64256796,-4.52809668,-0.01864878,-8.65454865,10291009.21005011,0.00000000,0.00000000,0.00000000,7348085.28795838,0.00000000,0.00000000,-0.00000000,9135388.76920938,-0.69061584,1.76048404,2.10955386,0.02019867,-0.22603586,0.02040998,0.97369566
0.19236056,0.56885278,0.78819108,-0.13875529,0.18949497,1.86941952,0.38845252,1.17023112,0.38845259,2.98901376,1.85354439,1.17023112,1.85354439,2.16122968,-0.00255312,-0.01212903,-0.01168410,0.69494526,0.00000000,0.00000000,0.00000000,0.61448867,0.00000000,0.00000000,-0.00000000,0.64256796,-4.51860571,-0.01138387,-8.65932655,10291009.21005011,0.00000000,0.00000000,0.00000000,7348085.28795838,0.00000000,0.00000000,-0.00000000,9135388.76920938,-0.69060400,1.76047663,2.10949843,0.02020288,-0.22609955,0.02040228,0.97368095
0.19730059,0.56882834,0.78817743,-0.13877156,0.18961293,1.86857369,0.38848996,1.16963242,0.38848986,2.98816267,1.85273971,1.16963242,1.85273984,2.16022594,-0.00042962,-0.01421250,-0.00843627,0.69494526,0.00000000,0.00000000,0.00000000,0.61448867,0.00000000,0.00000000,-0.00000000,0.64256796,-4.50190306,-0.00882170,-8.66172314,10291009.21005011,0.00000000,0.00000000,0.00000000,7348085.28795838,0.00000000,0.00000000,-0.00000000,9135388.76920938,-0.69059144,1.76046991,2.10944032,0.02019136,-0.22615955,0.02040766,0.97366714
0.20224063,0.56880903,0.78816140,-0.13878638,0.18972664,1.86783549,0.38857588,1.16913069,0.38857581,2.98742627,1.85206052,1.16913069,1.85206052,2.15936390,-0.00203101,-0.01265151,-0.00789560,0.69494526,0.00000000,0.00000000,0.00000000,0.61448867,0.00000000,0.00000000,-0.00000000,0.64256796,-4.49235868,-0.00156161,-8.66888428,10291009.21005011,0.00000000,0.00000000,0.00000000,7348085.28795838,0.00000000,0.00000000,-0.00000000,9135388.76920938,-0.69057886,1.76046440,2.10938406,0.02016978,-0.22621196,0.02042069,0.97365514
0.20718066,0.56879532,0.78814322,-0.13878536,0.18984398,1.86720424,0.38867312,1.16871456,0.38867299,2.98696997,1.85155879,1.16871456,1.85155893,2.15866685,-0.00522233,-0.01163327,-0.00627837,0.69494526,0.00000000,0.00000000,0.00000000,0.61448867,0.00000000,0.00000000,-0.00000000,0.64256796,-4.48997259,0.00562323,-8.66410351,10291009.21005011,0.00000000,0.00000000,0.00000000,7348085.28795838,0.00000000,0.00000000,-0.00000000,9135388.76920938,-0.69056485,1.76045960,2.10932443,0.02014071,-0.22626217,0.02043761,0.97364372
0.21212069,0.56878483,0.78812397,-0.13878267,0.18995737,1.86664086,0.38877587,1.16834498,0.38877591,2.98663198,1.85111814,1.16834498,1.85111801,2.15802950,0.00006835,-0.01105394,-0.00518196,0.69494526,0.00000000,0.00000000,0.00000000,0.61448867,0.00000000,0.00000000,-0.00000000,0.64256796,-4.48994589,0.00323423,-8.64977837,10291009.21005011,0.00000000,0.00000000,0.00000000,7348085.28795838,0.00000000,0.00000000,-0.00000000,9135388.76920938,-0.69054925,1.76045577,2.10926246,0.02010859,-0.22630904,0.02045311,0.97363316
0.23188056,0.56872916,0.78804266,-0.13881750,0.19043532,1.86398965,0.38919688,1.16655996,0.38919688,2.98442834,1.84878221,1.16656024,1.84878235,2.15487226,-0.00204102,-0.01423207,-0.00411794,0.69494526,0.00000000,0.00000000,0.00000000,0.61448867,0.00000000,0.00000000,-0.00000000,0.64256796,-4.52329826,0.00049166,-8.62826824,10291009.21005011,0.00000000,0.00000000,0.00000000,7348085.28795838,0.00000000,0.00000000,-0.00000000,9135388.76920938,-0.69047491,1.76045365,2.10901798,0.01999743,-0.22640649,0.02039411,0.97361403
0.24670066,0.56868792,0.78797013,-0.13893168,0.19077525,1.86188880,0.38967372,1.16512679,0.38967375,2.98190775,1.84654311,1.16512679,1.84654297,2.15203266,0.00112046,-0.01157099,-0.00139197,0.69494526,0.00000000,0.00000000,0.00000000,0.61448867,0.00000000,0.00000000,-0.00000000,0.64256796,-4.51619291,0.01011809,-8.64975548,10291009.21005011,0.00000000,0.00000000,0.00000000,7348085.28795838,0.00000000,0.00000000,-0.00000000,9135388.76920938,-0.69040042,1.76046932,2.10882287,0.01991979,-0.22633841,0.02016600,0.97363620
0.25164069,0.56868124,0.78794289,-0.13895978,0.19088706,1.86132473,0.38986166,1.16475513,0.38986166,2.98133787,1.84597613,1.16475499,1.84597613,2.15125374,-0.00048533,-0.01053704,0.00076871,0.69494526,0.00000000,0.00000000,0.00000000,0.61448867,0.00000000,0.00000000,-0.00000000,0.64256796,-4.51616621,0.01011567,-8.64736557,10291009.21005011,0.00000000,0.00000000,0.00000000,7348085.28795838,0.00000000,0.00000000,-0.00000000,9135388.76920938,-0.69038466,1.76047450,2.10878457,0.01989569,-0.22631017,0.02012286,0.97364415
0.26893068,0.56865931,0.78785199,-0.13903926,0.19126919,1.85946144,0.39047577,1.16353903,0.39047591,2.97959939,1.84415898,1.16353903,1.84415870,2.14872734,0.00001969,-0.00527178,-0.00083794,0.69494526,0.00000000,0.00000000,0.00000000,0.61448867,0.00000000,0.00000000,-0.00000000,0.64256796,-4.50187635,-0.02553022,-8.71903610,10291009.21005011,0.00000000,0.00000000,0.00000000,7348085.28795838,0.00000000,0.00000000,-0.00000000,9135388.76920938,-0.69028835,1.76051816,2.10856360,0.01972711,-0.22614002,0.01998320,0.97368999
0.27387045,0.56865305,0.78783256,-0.13904795,0.19136144,1.85903091,0.39061783,1.16327099,0.39061783,2.97928051,1.84378995,1.16327085,1.84378967,2.14819790,0.00104356,-0.00052849,-0.00245558,0.69494526,0.00000000,0.00000000,0.00000000,0.61448867,0.00000000,0.00000000,-0.00000000,0.64256796,-4.49699831,-0.02787631,-8.71664524,10291009.21005011,0.00000000,0.00000000,0.00000000,7348085.28795838,0.00000000,0.00000000,-0.00000000,9135388.76920938,-0.69027505,1.76052559,2.10853473,0.01971217,-0.22612969,0.01998018,0.97369276
0.27881048,0.56864935,0.78781319,-0.13905357,0.19144817,1.85866327,0.39076123,1.16304395,0.39076106,2.97907632,1.84348894,1.16304395,1.84348894,2.14772914,0.00371141,-0.00260389,-0.00407695,0.69494526,0.00000000,0.00000000,0.00000000,0.61448867,0.00000000,0.00000000,-0.00000000,0.64256796,-4.48506784,-0.03013748,-8.67845440,10291009.21005011,0.00000000,0.00000000,0.00000000,7348085.28795838,0.00000000,0.00000000,-0.00000000,9135388.76920938,-0.69024470,1.76054362,2.10847022,0.01969145,-0.22612316,0.01998502,0.97369459
0.29857061,0.56859785,0.78778428,-0.13913172,0.19166318,1.85700278,0.39094322,1.16192190,0.39094346,2.97716829,1.84182194,1.16192190,1.84182194,2.14577221,0.00591642,-0.00993858,-0.01056807,0.69494526,0.00000000,0.00000000,0.00000000,0.61448867,0.00000000,0.00000000,-0.00000000,0.64256796,-4.43991756,-0.04157693,-8.65702343,10291009.21005011,0.00000000,0.00000000,0.00000000,7348085.28795838,0.00000000,0.00000000,-0.00000000,9135388.76920938,-0.69011363,1.76063599,2.10821174,0.01975952,-0.22621514,0.02003785,0.97367076
0.31339045,0.56856465,0.78781575,-0.13920763,0.19157714,1.85660937,0.39070506,1.16149906,0.39070510,2.97647013,1.84130427,1.16149913,1.84130414,2.14520384,0.01279757,-0.01039558,-0.00838966,0.69494526,0.00000000,0.00000000,0.00000000,0.61448867,0.00000000,0.00000000,-0.00000000,0.64256796,-4.47804213,-0.04198309,-8.61879349,10291009.21005011,0.00000000,0.00000000,0.00000000,7348085.28795838,0.00000000,0.00000000,-0.00000000,9135388.76920938,-0.69001530,1.76071938,2.10802794,0.01984235,-0.22625012,0.02004956,0.97366071
0.31833048,0.56856912,0.78782618,-0.13918114,0.19154026,1.85689196,0.39067556,1.16173399,0.39067549,2.97704141,1.84179257,1.16173406,1.84179229,2.14578121,0.00857563,-0.01412098,-0.00678729,0.69494526,0.00000000,0.00000000,0.00000000,0.61448867,0.00000000,0.00000000,-0.00000000,0.64256796,-4.47088385,-0.02997490,-8.62356186,10291009.21005011,0.00000000,0.00000000,0.00000000,7348085.28795838,0.00000000,0.00000000,-0.00000000,9135388.76920938,-0.68998735,1.76074553,2.10797451,0.01984521,-0.22623964,0.02005879,0.97366290
0.33315058,0.56857914,0.78783882,-0.13920555,0.19144093,1.85732388,0.39058912,1.16196505,0.39058912,2.97785676,1.84233725,1.16196498,1.84233739,2.14629237,0.00644159,-0.01625115,0.00240166,0.69494526,0.00000000,0.00000000,0.00000000,0.61448867,0.00000000,0.00000000,-0.00000000,0.64256796,-4.48758650,-0.03253707,-8.68324184,10291009.21005011,0.00000000,0.00000000,0.00000000,7348085.28795838,0.00000000,0.00000000,-0.00000000,9135388.76920938,-0.68989099,1.76084582,2.10777886,0.01978275,-0.22619373,0.02014083,0.97367314
0.33809061,0.56859583,0.78784299,-0.13919398,0.19138259,1.85780248,0.39056598,1.16228359,0.39056602,2.97871201,1.84292667,1.16228373,1.84292653,2.14688386,0.00695064,-0.01467017,0.00619543,0.69494526,0.00000000,0.00000000,0.00000000,0.61448867,0.00000000,0.00000000,-0.00000000,0.64256796,-4.48281431,-0.03248690,-8.69040775,10291009.21005011,0.00000000,0.00000000,0.00000000,7348085.28795838,0.00000000,0.00000000,-0.00000000,9135388.76920938,-0.68986252,1.76087909,2.10771600,0.01974774,-0.22619701,0.02018542,0.97367217
0.34303064,0.56862241,0.78783679,-0.13918231,0.19133742,1.85837777,0.39061939,1.16267755,0.39061939,2.97977116,1.84362594,1.16267741,1.84362580,2.14752717,0.00324754,-0.01839218,0.01158762,0.69494526,0.00000000,0.00000000,0.00000000,0.61448867,0.00000000,0.00000000,-0.00000000,0.64256796,-4.47088385,-0.03713466,-8.70713139,10291009.21005011,0.00000000,0.00000000,0.00000000,7348085.28795838,0.00000000,0.00000000,-0.00000000,9135388.76920938,-0.68983245,1.76091626,2.10764673,0.01970808,-0.22621445,0.02023914,0.97366780
0.34797068,0.56865108,0.78783172,-0.13916144,0.19128819,1.85902856,0.39066371,1.16313399,0.39066392,2.98098186,1.84442979,1.16313426,1.84442979,2.14829695,0.00163369,-0.01420182,0.01376514,0.69494526,0.00000000,0.00000000,0.00000000,0.61448867,0.00000000,0.00000000,-0.00000000,0.64256796,-4.46380520,-0.04659852,-8.71192646,10291009.21005011,0.00000000,0.00000000,0.00000000,7348085.28795838,0.00000000,0.00000000,-0.00000000,9135388.76920938,-0.68979569,1.76096471,2.10755813,0.01966379,-0.22625674,0.02030529,0.97365749
0.36279051,0.56874520,0.78778690,-0.13918409,0.19117656,1.86074875,0.39098488,1.16429773,0.39098495,2.98388754,1.84627798,1.16429787,1.84627798,2.14989274,-0.00738990,-0.02008669,0.02562020,0.69494526,0.00000000,0.00000000,0.00000000,0.61448867,0.00000000,0.00000000,-0.00000000,0.64256796,-4.46128654,-0.06329162,-8.62359524,10291009.21005011,0.00000000,0.00000000,0.00000000,7348085.28795838,0.00000000,0.00000000,-0.00000000,9135388.76920938,-0.68971320,1.76108724,2.10734316,0.01963385,-0.22644006,0.02039321,0.97361364
0.37761061,0.56883919,0.78772253,-0.13925955,0.19110738,1.86220145,0.39145666,1.16528416,0.39145666,2.98609866,1.84767818,1.16528430,1.84767804,2.15098958,-0.01004446,-0.01958802,0.02507062,0.69494526,0.00000000,0.00000000,0.00000000,0.61448867,0.00000000,0.00000000,-0.00000000,0.64256796,-4.46603251,-0.06573080,-8.72386742,10291009.21005011,0.00000000,0.00000000,0.00000000,7348085.28795838,0.00000000,0.00000000,-0.00000000,9135388.76920938,-0.68964172,1.76121756,2.10712888,0.01972072,-0.22666073,0.02032288,0.97356201
0.38255064,0.56887972,0.78770047,-0.13925591,0.19108012,1.86290376,0.39161683,1.16578035,0.39161683,2.98736338,1.84848342,1.16578035,1.84848328,2.15168330,-0.01004598,-0.02011476,0.02669287,0.69494526,0.00000000,0.00000000,0.00000000,0.61448867,0.00000000,0.00000000,-0.00000000,0.64256796,-4.45887423,-0.06804213,-8.74536133,10291009.21005011,0.00000000,0.00000000,0.00000000,7348085.28795838,0.00000000,0.00000000,-0.00000000,9135388.76920938,-0.68962769,1.76124751,2.10708157,0.01974892,-0.22670367,0.02028835,0.97355216
0.39490060,0.56898272,0.78764766,-0.13922846,0.19101129,1.86473921,0.39198132,1.16707846,0.39198142,2.99076941,1.85062791,1.16707832,1.85062763,2.15355490,-0.00684365,-0.02218412,0.02453404,0.69494526,0.00000000,0.00000000,0.00000000,0.61448867,0.00000000,0.00000000,-0.00000000,0.64256796,-4.42788124,-0.06055387,-8.71911335,10291009.21005011,0.00000000,0.00000000,0.00000000,7348085.28795838,0.00000000,0.00000000,-0.00000000,9135388.76920938,-0.68957222,1.76139121,2.10686300,0.01984129,-0.22682765,0.02012479,0.97352480
0.39984063,0.56901264,0.78763419,-0.13921969,0.19098388,1.86530494,0.39205848,1.16747145,0.39205875,2.99184075,1.85130474,1.16747173,1.85130460,2.15415693,-0.00896176,-0.02009923,0.01749342,0.69494526,0.00000000,0.00000000,0.00000000,0.61448867,0.00000000,0.00000000,-0.00000000,0.64256796,-4.41112614,-0.06992947,-8.73106480,10291009.21005011,0.00000000,0.00000000,0.00000000,7348085.28795838,0.00000000,0.00000000,-0.00000000,9135388.76920938,-0.68957155,1.76139330,2.10685991,0.01984171,-0.22682834,0.02012297,0.97352467
0.40478066,0.56904155,0.78762269,-0.13921170,0.19095114,1.86586527,0.39212805,1.16785627,0.39212788,2.99289658,1.85197492,1.16785627,1.85197505,2.15475701,-0.00524689,-0.02058675,0.01696138,0.69494526,0.00000000,0.00000000,0.00000000,0.61448867,0.00000000,0.00000000,-0.00000000,0.64256796,-4.39680958,-0.07455215,-8.76211643,10291009.21005011,0.00000000,0.00000000,0.00000000,7348085.28795838,0.00000000,0.00000000,-0.00000000,9135388.76920938,-0.68955572,1.76144635,2.10678246,0.01984546,-0.22683934,0.02008500,0.97352281
0.40972069,0.56906074,0.78761905,-0.13920255,0.19091563,1.86629719,0.39212867,1.16814398,0.39212874,2.99374324,1.85251613,1.16814412,1.85251627,2.15526179,-0.00311140,-0.01950947,0.01047797,0.69494526,0.00000000,0.00000000,0.00000000,0.61448867,0.00000000,0.00000000,-0.00000000,0.64256796,-4.40399456,-0.06985182,-8.78120995,10291009.21005011,0.00000000,0.00000000,0.00000000,7348085.28795838,0.00000000,0.00000000,-0.00000000,9135388.76920938,-0.68954195,1.76149933,2.10670699,0.01984138,-0.22684581,0.02006353,0.97352183
0.41466047,0.56908166,0.78761458,-0.13919950,0.19087374,1.86676110,0.39215271,1.16845248,0.39215271,2.99458436,1.85306565,1.16845248,1.85306565,2.15577295,0.00006534,-0.01895099,0.01048826,0.69494526,0.00000000,0.00000000,0.00000000,0.61448867,0.00000000,0.00000000,-0.00000000,0.64256796,-4.41831112,-0.05806937,-8.76925182,10291009.21005011,0.00000000,0.00000000,0.00000000,7348085.28795838,0.00000000,0.00000000,-0.00000000,9135388.76920938,-0.68953029,1.76155081,2.10663559,0.01983660,-0.22685714,0.02005952,0.97351937
0.42948056,0.56909877,0.78763741,-0.13922299,0.19071145,1.86754168,0.39195621,1.16889866,0.39195614,2.99577345,1.85393060,1.16889852,1.85393087,2.15669746,0.00646832,-0.01835144,-0.00518695,0.69494526,0.00000000,0.00000000,0.00000000,0.61448867,0.00000000,0.00000000,-0.00000000,0.64256796,-4.44694376,-0.05121061,-8.72625256,10291009.21005011,0.00000000,0.00000000,0.00000000,7348085.28795838,0.00000000,0.00000000,-0.00000000,9135388.76920938,-0.68949712,1.76175348,2.10637618,0.01985950,-0.22698360,0.02015434,0.97348747
0.44677055,0.56904995,0.78771168,-0.13930336,0.19049150,1.86738848,0.39137109,1.16859031,0.39137102,2.99505312,1.85366809,1.16859017,1.85366782,2.15669524,0.01286204,-0.01985942,-0.01329080,0.69494526,0.00000000,0.00000000,0.00000000,0.61448867,0.00000000,0.00000000,-0.00000000,0.64256796,-4.48273516,-0.03488075,-8.65220261,10291009.21005011,0.00000000,0.00000000,0.00000000,7348085.28795838,0.00000000,0.00000000,-0.00000000,9135388.76920938,-0.68947810,1.76194931,2.10616548,0.01993636,-0.22709654,0.02020779,0.97345845
0.45171058,0.56902808,0.78773624,-0.13934058,0.19042812,1.86719219,0.39117923,1.16838183,0.39117933,2.99451621,1.85338093,1.16838183,1.85338121,2.15649244,0.01500840,-0.02351787,-0.01546105,0.69494526,0.00000000,0.00000000,0.00000000,0.61448867,0.00000000,0.00000000,-0.00000000,0.64256796,-4.49225283,-0.04214325,-8.64503765,10291009.21005011,0.00000000,0.00000000,0.00000000,7348085.28795838,0.00000000,0.00000000,-0.00000000,9135388.76920938,-0.68947760,1.76195599,2.10615903,0.01993961,-0.22709892,0.02020703,0.97345784
0.46653068,0.56893569,0.78783077,-0.13946013,0.19022550,1.86622903,0.39044388,1.16747685,0.39044384,2.99219150,1.85211413,1.16747671,1.85211399,2.15558705,0.01554340,-0.02035340,-0.02085682,0.69494526,0.00000000,0.00000000,0.00000000,0.61448867,0.00000000,0.00000000,-0.00000000,0.64256796,-4.54482603,-0.03075488,-8.64500237,10291009.21005011,0.00000000,0.00000000,0.00000000,7348085.28795838,0.00000000,0.00000000,-0.00000000,9135388.76920938,-0.68946378,1.76218804,2.10596006,0.02004820,-0.22713993,0.02010051,0.97344825
0.47147045,0.56889576,0.78786957,-0.13950917,0.19014806,1.86578797,0.39014550,1.16707818,0.39014546,2.99113733,1.85152457,1.16707818,1.85152444,2.15515513,0.01926380,-0.01926097,-0.02462757,0.69494526,0.00000000,0.00000000,0.00000000,0.61448867,0.00000000,0.00000000,-0.00000000,0.64256796,-4.56158161,-0.01660611,-8.63065815,10291009.21005011,0.00000000,0.00000000,0.00000000,7348085.28795838,0.00000000,0.00000000,-0.00000000,9135388.76920938,-0.68946245,1.76221229,2.10594158,0.02005602,-0.22714328,0.02008642,0.97344760
0.47641048,0.56884730,0.78788781,-0.13960746,0.19014558,1.86479309,0.39000133,1.16625590,0.39000143,2.98920298,1.85023298,1.16625604,1.85023311,2.15378513,0.01872742,-0.01926758,-0.02246431,0.69494526,0.00000000,0.00000000,0.00000000,0.61448867,0.00000000,0.00000000,-0.00000000,0.64256796,-4.58544254,-0.01447036,-8.61392879,10291009.21005011,0.00000000,0.00000000,0.00000000,7348085.28795838,0.00000000,0.00000000,-0.00000000,9135388.76920938,-0.68945880,1.76227543,2.10589492,0.02006952,-0.22715615,0.02005521,0.97344496
0.48135051,0.56879407,0.78788781,-0.13972375,0.19021939,1.86346963,0.39001650,1.16528125,0.39001653,2.98671093,1.84851846,1.16528111,1.84851833,2.15201285,0.02083976,-0.01714095,-0.02624584,0.69494526,0.00000000,0.00000000,0.00000000,0.61448867,0.00000000,0.00000000,-0.00000000,0.64256796,-4.59731960,-0.01937376,-8.59959602,10291009.21005011,0.00000000,0.00000000,0.00000000,7348085.28795838,0.00000000,0.00000000,-0.00000000,9135388.76920938,-0.68945445,1.76234085,2.10584844,0.02007048,-0.22717930,0.02003680,0.97343992
0.49617061,0.56860644,0.78791094,-0.14010651,0.19040276,1.85914408,0.38991942,1.16206528,0.38991960,2.97834630,1.84287777,1.16206541,1.84287763,2.14630400,0.02720570,-0.01602194,-0.02947017,0.69494526,0.00000000,0.00000000,0.00000000,0.61448867,0.00000000,0.00000000,-0.00000000,0.64256796,-4.59734631,-0.04562381,-8.61156082,10291009.21005011,0.00000000,0.00000000,0.00000000,7348085.28795838,0.00000000,0.00000000,-0.00000000,9135388.76920938,-0.68943115,1.76255955,2.10570524,0.02000210,-0.22735238,0.02010251,0.97339956
0.51099045,0.56839257,0.78796327,-0.14049609,0.19053765,1.85462516,0.38963673,1.15869346,0.38963690,2.96943755,1.83698981,1.15869339,1.83698981,2.14050567,0.03039063,-0.01019778,-0.04134837,0.69494526,0.00000000,0.00000000,0.00000000,0.61448867,0.00000000,0.00000000,-0.00000000,0.64256796,-4.58546877,-0.04788014,-8.59247589,10291009.21005011,0.00000000,0.00000000,0.00000000,7348085.28795838,0.00000000,0.00000000,-0.00000000,9135388.76920938,-0.68938413,1.76277546,2.10558303,0.01991773,-0.22766353,0.02033299,0.97332377
0.51593048,0.56831646,0.78798521,-0.14063062,0.19057494,1.85306551,0.38951597,1.15752363,0.38951608,2.96633849,1.83495641,1.15752377,1.83495628,2.13851923,0.03252034,-0.01122718,-0.04242741,0.69494526,0.00000000,0.00000000,0.00000000,0.61448867,0.00000000,0.00000000,-0.00000000,0.64256796,-4.57353830,-0.06446083,-8.57339859,10291009.21005011,0.00000000,0.00000000,0.00000000,7348085.28795838,0.00000000,0.00000000,-0.00000000,9135388.76920938,-0.68937671,1.76280028,2.10557009,0.01990691,-0.22770202,0.02036390,0.97331435
0.53075058,0.56805974,0.78807956,-0.14105625,0.19063529,1.84813822,0.38897580,1.15381022,0.38897573,2.95631129,1.82848402,1.15381022,1.82848374,2.13234716,0.03833239,-0.00643121,-0.05215388,0.69494526,0.00000000,0.00000000,0.00000000,0.61448867,0.00000000,0.00000000,-0.00000000,0.64256796,-4.55906296,-0.10489681,-8.52568150,10291009.21005011,0.00000000,0.00000000,0.00000000,7348085.28795838,0.00000000,0.00000000,-0.00000000,9135388.76920938,-0.68928360,1.76303302,2.10545641,0.01973902,-0.22798582,0.02063618,0.97324559
0.53569061,0.56795996,0.78812104,-0.14120956,0.19064772,1.84628767,0.38872112,1.15240725,0.38872119,2.95255065,1.82607883,1.15240711,1.82607883,2.13007924,0.03833725,-0.00695678,-0.05269639,0.69494526,0.00000000,0.00000000,0.00000000,0.61448867,0.00000000,0.00000000,-0.00000000,0.64256796,-4.55906296,-0.10966998,-8.53762436,10291009.21005011,0.00000000,0.00000000,0.00000000,7348085.28795838,0.00000000,0.00000000,-0.00000000,9135388.76920938,-0.68927411,1.76305197,2.10544744,0.01971544,-0.22799923,0.02066006,0.97324242
0.54063064,0.56785893,0.78816390,-0.14136106,0.19065928,1.84443353,0.38845405,1.15100310,0.38845412,2.94878307,1.82367405,1.15100317,1.82367405,2.12782269,0.03675437,-0.00539283,-0.05648077,0.69494526,0.00000000,0.00000000,0.00000000,0.61448867,0.00000000,0.00000000,-0.00000000,0.64256796,-4.54718542,-0.11192633,-8.54718781,10291009.21005011,0.00000000,0.00000000,0.00000000,7348085.28795838,0.00000000,0.00000000,-0.00000000,9135388.76920938,-0.68923906,1.76311753,2.10541622,0.01961553,-0.22803017,0.02075101,0.97323526
0.54557068,0.56775177,0.78821200,-0.14152156,0.19066054,1.84250694,0.38815421,1.14953682,0.38815414,2.94482516,1.82115499,1.14953682,1.82115513,2.12547886,0.04364264,-0.00426957,-0.05808227,0.69494526,0.00000000,0.00000000,0.00000000,0.61448867,0.00000000,0.00000000,-0.00000000,0.64256796,-4.52571058,-0.11647375,-8.55198002,10291009.21005011,0.00000000,0.00000000,0.00000000,7348085.28795838,0.00000000,0.00000000,-0.00000000,9135388.76920938,-0.68920286,1.76317948,2.10538623,0.01949338,-0.22803749,0.02085235,0.97323383
0.56039052,0.56739599,0.78837585,-0.14204611,0.19065186,1.83619814,0.38711085,1.14471653,0.38711085,2.93179227,1.81290603,1.14471653,1.81290589,2.11781959,0.04000338,-0.01061242,-0.06784772,0.69494526,0.00000000,0.00000000,0.00000000,0.61448867,0.00000000,0.00000000,-0.00000000,0.64256796,-4.51380682,-0.14975815,-8.49711037,10291009.21005011,0.00000000,0.00000000,0.00000000,7348085.28795838,0.00000000,0.00000000,-0.00000000,9135388.76920938,-0.68903317,1.76342289,2.10526230,0.01889508,-0.22803435,0.02142780,0.97323387
0.57768050,0.56691396,0.78860420,-0.14274520,0.19061923,1.82778461,0.38559817,1.13825501,0.38559831,2.91435211,1.80189462,1.13825508,1.80189462,2.10766413,0.05010439,-0.01313557,-0.07378122,0.69494526,0.00000000,0.00000000,0.00000000,0.61448867,0.00000000,0.00000000,-0.00000000,0.64256796,-4.48276138,-0.14466131,-8.60217190,10291009.21005011,0.00000000,0.00000000,0.00000000,7348085.28795838,0.00000000,0.00000000,-0.00000000,9135388.76920938,-0.68886389,1.76362378,2.10515441,0.01842420,-0.22813289,0.02205960,0.97320569
0.58262053,0.56677145,0.78867358,-0.14295387,0.19059989,1.82534465,0.38515275,1.13637905,0.38515271,2.90920843,1.79868003,1.13637884,1.79868003,2.10471786,0.04585936,-0.01160058,-0.07541279,0.69494526,0.00000000,0.00000000,0.00000000,0.61448867,0.00000000,0.00000000,-0.00000000,0.64256796,-4.48991966,-0.13996339,-8.59977531,10291009.21005011,0.00000000,0.00000000,0.00000000,7348085.28795838,0.00000000,0.00000000,-0.00000000,9135388.76920938,-0.68885743,1.76363093,2.10515056,0.01840814,-0.22813647,0.02208185,0.97320465
0.58756056,0.56662494,0.78874189,-0.14316657,0.19059327,1.82278861,0.38469544,1.13441035,0.38469534,2.90392596,1.79534244,1.13441035,1.79534271,2.10162448,0.04641230,-0.01580264,-0.07433946,0.69494526,0.00000000,0.00000000,0.00000000,0.61448867,0.00000000,0.00000000,-0.00000000,0.64256796,-4.49707747,-0.14003864,-8.59499645,10291009.21005011,0.00000000,0.00000000,0.00000000,7348085.28795838,0.00000000,0.00000000,-0.00000000,9135388.76920938,-0.68879694,1.76369660,2.10511525,0.01826221,-0.22816519,0.02227950,0.97319616
0.59250059,0.56648302,0.78880686,-0.14337526,0.19058929,1.82030529,0.38426758,1.13250073,0.38426758,2.89879143,1.79210125,1.13250080,1.79210125,2.09861352,0.04429738,-0.01792930,-0.07164479,0.69494526,0.00000000,0.00000000,0.00000000,0.61448867,0.00000000,0.00000000,-0.00000000,0.64256796,-4.49707747,-0.13287887,-8.58543873,10291009.21005011,0.00000000,0.00000000,0.00000000,7348085.28795838,0.00000000,0.00000000,-0.00000000,9135388.76920938,-0.68873386,1.76376275,2.10507944,0.01811650,-0.22818485,0.02246315,0.97319005
0.59744063,0.56634653,0.78886771,-0.14357249,0.19059452,1.81789940,0.38386530,1.13065760,0.38386544,2.89387826,1.78899111,1.13065753,1.78899084,2.09571449,0.04056474,-0.01586564,-0.06840284,0.69494526,0.00000000,0.00000000,0.00000000,0.61448867,0.00000000,0.00000000,-0.00000000,0.64256796,-4.50423574,-0.12102119,-8.58542347,10291009.21005011,0.00000000,0.00000000,0.00000000,7348085.28795838,0.00000000,0.00000000,-0.00000000,9135388.76920938,-0.68865955,1.76383821,2.10503772,0.01794912,-0.22819291,0.02264800,0.97318698
0.60238066,0.56621116,0.78892404,-0.14376982,0.19061477,1.81545723,0.38347709,1.12878496,0.38347723,2.88897895,1.78584925,1.12878482,1.78584939,2.09274703,0.04059102,-0.02112545,-0.06625128,0.69494526,0.00000000,0.00000000,0.00000000,0.61448867,0.00000000,0.00000000,-0.00000000,0.64256796,-4.52332449,-0.11406209,-8.59734249,10291009.21005011,0.00000000,0.00000000,0.00000000,7348085.28795838,0.00000000,0.00000000,-0.00000000,9135388.76920938,-0.68859802,1.76389903,2.10500298,0.01781128,-0.22818614,0.02277372,0.97318816
0.60732069,0.56608987,0.78897095,-0.14395331,0.19064249,1.81322339,0.38316964,1.12708202,0.38316957,2.88451432,1.78298721,1.12708188,1.78298721,2.09002116,0.03579838,-0.02117873,-0.05760348,0.69494526,0.00000000,0.00000000,0.00000000,0.61448867,0.00000000,0.00000000,-0.00000000,0.64256796,-4.53528166,-0.11179850,-8.59017372,10291009.21005011,0.00000000,0.00000000,0.00000000,7348085.28795838,0.00000000,0.00000000,-0.00000000,9135388.76920938,-0.68852725,1.76396749,2.10496227,0.01765112,-0.22816293,0.02288714,0.97319386
0.61226047,0.56598121,0.78900796,-0.14413150,0.19067727,1.81116991,0.38293193,1.12551870,0.38293203,2.88038880,1.78031480,1.12551877,1.78031480,2.08745043,0.03685208,-0.02169548,-0.05435467,0.69494526,0.00000000,0.00000000,0.00000000,0.61448867,0.00000000,0.00000000,-0.00000000,0.64256796,-4.55437040,-0.10961257,-8.56389618,10291009.21005011,0.00000000,0.00000000,0.00000000,7348085.28795838,0.00000000,0.00000000,-0.00000000,9135388.76920938,-0.68845859,1.76403291,2.10492165,0.01749288,-0.22813064,0.02297307,0.97320226
0.61720050,0.56587505,0.78903836,-0.14430569,0.19073477,1.80907820,0.38272189,1.12393129,0.38272193,2.87631259,1.77763783,1.12393143,1.77763783,2.08482415,0.03211258,-0.02753033,-0.05058985,0.69494526,0.00000000,0.00000000,0.00000000,0.61448867,0.00000000,0.00000000,-0.00000000,0.64256796,-4.57828426,-0.09792563,-8.55432510,10291009.21005011,0.00000000,0.00000000,0.00000000,7348085.28795838,0.00000000,0.00000000,-0.00000000,9135388.76920938,-0.68829156,1.76419145,2.10481625,0.01709206,-0.22806154,0.02314615,0.97322148
0.63202059,0.56564748,0.78905660,-0.14476545,0.19098583,1.80397677,0.38260990,1.12010719,0.38261000,2.86660095,1.77107207,1.12010733,1.77107207,2.07811045,0.02252651,-0.03342703,-0.02574330,0.69494526,0.00000000,0.00000000,0.00000000,0.61448867,0.00000000,0.00000000,-0.00000000,0.64256796,-4.64978647,-0.05334022,-8.64018154,10291009.21005011,0.00000000,0.00000000,0.00000000,7348085.28795838,0.00000000,0.00000000,-0.00000000,9135388.76920938,-0.68814450,1.76433467,2.10471412,0.01672462,-0.22806886,0.02332709,0.97322183
0.64931058,0.56554818,0.78896344,-0.14514904,0.19137315,1.80041352,0.38328163,1.11753453,0.38328177,2.86029728,1.76643138,1.11753467,1.76643138,2.07284612,0.01287496,-0.02722820,0.00076833,0.69494526,0.00000000,0.00000000,0.00000000,0.61448867,0.00000000,0.00000000,-0.00000000,0.64256796,-4.71426439,-0.03491993,-8.69981670,10291009.21005011,0.00000000,0.00000000,0.00000000,7348085.28795838,0.00000000,0.00000000,-0.00000000,9135388.76920938,-0.68791343,1.76457814,2.10454228,0.01623029,-0.22828791,0.02376122,0.97316834
0.65425061,0.56555295,0.78891337,-0.14524788,0.19149058,1.79986857,0.38365540,1.11716356,0.38365537,2.85932706,1.76561228,1.11716370,1.76561256,2.07176785,0.01656919,-0.02824597,0.00835279,0.69494526,0.00000000,0.00000000,0.00000000,0.61448867,0.00000000,0.00000000,-0.00000000,0.64256796,-4.72380877,-0.02308733,-8.71889877,10291009.21005011,0.00000000,0.00000000,0.00000000,7348085.28795838,0.00000000,0.00000000,-0.00000000,9135388.76920938,-0.68786724,1.76463083,2.10450718,0.01615626,-0.22836425,0.02387316,0.97314892
0.65919064,0.56556803,0.78885972,-0.14532444,0.19160891,1.79952018,0.38405993,1.11695300,0.38405986,2.85878792,1.76508201,1.11695300,1.76508201,2.07096829,0.01069148,-0.02252385,0.01430840,0.69494526,0.00000000,0.00000000,0.00000000,0.61448867,0.00000000,0.00000000,-0.00000000,0.64256796,-4.73579168,-0.02559450,-8.74277496,10291009.21005011,0.00000000,0.00000000,0.00000000,7348085.28795838,0.00000000,0.00000000,-0.00000000,9135388.76920938,-0.68779198,1.76472028,2.10444984,0.01605497,-0.22850240,0.02406433,0.97311346
0.66413068,0.56559294,0.78880388,-0.14538917,0.19171600,1.79938013,0.38448935,1.11689926,0.38448956,2.85861200,1.76478820,1.11689926,1.76478834,2.07040741,0.01171087,-0.01725580,0.01703052,0.69494526,0.00000000,0.00000000,0.00000000,0.61448867,0.00000000,0.00000000,-0.00000000,0.64256796,-4.74294996,-0.04237585,-8.77143669,10291009.21005011,0.00000000,0.00000000,0.00000000,7348085.28795838,0.00000000,0.00000000,-0.00000000,9135388.76920938,-0.68771538,1.76481645,2.10439159,0.01597674,-0.22865076,0.02426028,0.97307503
0.66907045,0.56562394,0.78874421,-0.14545240,0.19182211,1.79933331,0.38495095,1.11691436,0.38495085,2.85858928,1.76459122,1.11691443,1.76459122,2.06992535,0.01063258,-0.01674290,0.01918691,0.69494526,0.00000000,0.00000000,0.00000000,0.61448867,0.00000000,0.00000000,-0.00000000,0.64256796,-4.74525690,-0.06388745,-8.78577328,10291009.21005011,0.00000000,0.00000000,0.00000000,7348085.28795838,0.00000000,0.00000000,-0.00000000,9135388.76920938,-0.68764393,1.76491149,2.10433767,0.01592674,-0.22878587,0.02443408,0.97303974
0.67401048,0.56565535,0.78868753,-0.14550827,0.19192035,1.79934135,0.38539599,1.11697406,0.38539599,2.85865993,1.76446835,1.11697392,1.76446835,2.06954399,0.01218341,-0.01041622,0.01920722,0.69494526,0.00000000,0.00000000,0.00000000,0.61448867,0.00000000,0.00000000,-0.00000000,0.64256796,-4.74525690,-0.07343380,-8.77861977,10291009.21005011,0.00000000,0.00000000,0.00000000,7348085.28795838,0.00000000,0.00000000,-0.00000000,9135388.76920938,-0.68757949,1.76500182,2.10428954,0.01589981,-0.22889993,0.02457922,0.97300970
0.67895052,0.56569070,0.78863049,-0.14556248,0.19200927,1.79944178,0.38585278,1.11709929,0.38585285,2.85885940,1.76443455,1.11709915,1.76443469,2.06925198,0.01587202,-0.00827537,0.01813165,0.69494526,0.00000000,0.00000000,0.00000000,0.61448867,0.00000000,0.00000000,-0.00000000,0.64256796,-4.74276495,-0.07341838,-8.76428604,10291009.21005011,0.00000000,0.00000000,0.00000000,7348085.28795838,0.00000000,0.00000000,-0.00000000,9135388.76920938,-0.68751204,1.76510102,2.10423971,0.01588815,-0.22900862,0.02471818,0.97298080
0.68389055,0.56572485,0.78857738,-0.14562379,0.19208026,1.79958016,0.38630668,1.11725007,0.38630655,2.85899543,1.76439743,1.11725014,1.76439770,2.06899017,0.01849416,-0.00298868,0.01652875,0.69494526,0.00000000,0.00000000,0.00000000,0.61448867,0.00000000,0.00000000,-0.00000000,0.64256796,-4.73083448,-0.08522592,-8.75475502,10291009.21005011,0.00000000,0.00000000,0.00000000,7348085.28795838,0.00000000,0.00000000,-0.00000000,9135388.76920938,-0.68743883,1.76521386,2.10418639,0.01589188,-0.22911079,0.02485266,0.97295326
0.69871064,0.56582785,0.78842813,-0.14582074,0.19224004,1.80017000,0.38765705,1.11781407,0.38765698,2.85941461,1.76437346,1.11781414,1.76437360,2.06835407,0.02749286,0.00289207,0.01116348,0.69494526,0.00000000,0.00000000,0.00000000,0.61448867,0.00000000,0.00000000,-0.00000000,0.64256796,-4.68557787,-0.13724698,-8.70231533,10291009.21005011,0.00000000,0.00000000,0.00000000,7348085.28795838,0.00000000,0.00000000,-0.00000000,9135388.76920938,-0.68723457,1.76555311,2.10404337,0.01596390,-0.22929469,0.02513864,0.97290141
0.71353048,0.56588972,0.78830975,-0.14608206,0.19234520,1.80023732,0.38881774,1.11794303,0.38881781,2.85842471,1.76354149,1.11794303,1.76354149,2.06705818,0.03337124,-0.00072452,0.00251168,0.69494526,0.00000000,0.00000000,0.00000000,0.61448867,0.00000000,0.00000000,-0.00000000,0.64256796,-4.65455866,-0.17510630,-8.63074493,10291009.21005011,0.00000000,0.00000000,0.00000000,7348085.28795838,0.00000000,0.00000000,-0.00000000,9135388.76920938,-0.68701770,1.76593087,2.10391105,0.01608518,-0.22941532,0.02537825,0.97286475
0.71847052,0.56589919,0.78827584,-0.14619157,0.19237293,1.80007732,0.38916779,1.11783970,0.38916790,2.85764843,1.76299723,1.11783970,1.76299723,2.06638841,0.03390898,-0.00124435,0.00197290,0.69494526,0.00000000,0.00000000,0.00000000,0.61448867,0.00000000,0.00000000,-0.00000000,0.64256796,-4.66174364,-0.18233888,-8.62119961,10291009.21005011,0.00000000,0.00000000,0.00000000,7348085.28795838,0.00000000,0.00000000,-0.00000000,9135388.76920938,-0.68696480,1.76602244,2.10388353,0.01611470,-0.22944165,0.02543436,0.97285659
0.72341055,0.56590211,0.78824633,-0.14630936,0.19239570,1.79982618,0.38948370,1.11766322,0.38948380,2.85665521,1.76232636,1.11766349,1.76232622,2.06561628,0.03391368,-0.00071702,-0.00073173,0.69494526,0.00000000,0.00000000,0.00000000,0.61448867,0.00000000,0.00000000,-0.00000000,0.64256796,-4.67367411,-0.18962406,-8.63074970,10291009.21005011,0.00000000,0.00000000,0.00000000,7348085.28795838,0.00000000,0.00000000,-0.00000000,9135388.76920938,-0.68689243,1.76614625,2.10384969,0.01615263,-0.22947238,0.02550743,0.97284680
0.72835058,0.56590122,0.78821695,-0.14644058,0.19241902,1.79948153,0.38979344,1.11740937,0.38979351,2.85544728,1.76151835,1.11740937,1.76151848,2.06470341,0.03341019,-0.00545554,-0.00074733,0.69494526,0.00000000,0.00000000,0.00000000,0.61448867,0.00000000,0.00000000,-0.00000000,0.64256796,-4.66887522,-0.18957631,-8.66656303,10291009.21005011,0.00000000,0.00000000,0.00000000,7348085.28795838,0.00000000,0.00000000,-0.00000000,9135388.76920938,-0.68681724,1.76627250,2.10381959,0.01618772,-0.22949551,0.02557721,0.97283893
0.73329061,0.56589669,0.78819042,-0.14657590,0.19243765,1.79909588,0.39008316,1.11712367,0.39008316,2.85412798,1.76065216,1.11712367,1.76065229,2.06375383,0.03287199,-0.00388309,-0.00128605,0.69494526,0.00000000,0.00000000,0.00000000,0.61448867,0.00000000,0.00000000,-0.00000000,0.64256796,-4.66648912,-0.18955123,-8.69999027,10291009.21005011,0.00000000,0.00000000,0.00000000,7348085.28795838,0.00000000,0.00000000,-0.00000000,9135388.76920938,-0.68673511,1.76640717,2.10379283,0.01622006,-0.22950874,0.02564466,0.97283349
0.74070053,0.56589419,0.78815085,-0.14677304,0.19245704,1.79861853,0.39051937,1.11676877,0.39051937,2.85231719,1.75948329,1.11676870,1.75948343,2.06246542,0.02863090,-0.00287450,-0.00020630,0.69494526,0.00000000,0.00000000,0.00000000,0.61448867,0.00000000,0.00000000,-0.00000000,0.64256796,-4.70474672,-0.20187825,-8.72385979,10291009.21005011,0.00000000,0.00000000,0.00000000,7348085.28795838,0.00000000,0.00000000,-0.00000000,9135388.76920938,-0.68665709,1.76653203,2.10377297,0.01624594,-0.22951099,0.02569920,0.97283109
0.74564056,0.56589669,0.78812170,-0.14690249,0.19247016,1.79835173,0.39082890,1.11656846,0.39082883,2.85122230,1.75877599,1.11656853,1.75877626,2.06166101,0.02596176,-0.00290519,0.00628049,0.69494526,0.00000000,0.00000000,0.00000000,0.61448867,0.00000000,0.00000000,-0.00000000,0.64256796,-4.72860765,-0.21406201,-8.73818207,10291009.21005011,0.00000000,0.00000000,0.00000000,7348085.28795838,0.00000000,0.00000000,-0.00000000,9135388.76920938,-0.68657567,1.76665944,2.10375755,0.01626925,-0.22950453,0.02574545,0.97283100
0.75058059,0.56590599,0.78808755,-0.14702629,0.19248819,1.79817650,0.39116604,1.11643950,0.39116600,2.85031774,1.75818338,1.11643943,1.75818338,2.06095260,0.02119287,-0.00400726,0.01005719,0.69494526,0.00000000,0.00000000,0.00000000,0.61448867,0.00000000,0.00000000,-0.00000000,0.64256796,-4.74059057,-0.21895577,-8.78115940,10291009.21005011,0.00000000,0.00000000,0.00000000,7348085.28795838,0.00000000,0.00000000,-0.00000000,9135388.76920938,-0.68645124,1.76684881,2.10374351,0.01630013,-0.22948103,0.02579367,0.97283475
0.76540069,0.56595737,0.78798532,-0.14736238,0.19249846,1.79820074,0.39215160,1.11645051,0.39215167,2.84859034,1.75708101,1.11645058,1.75708087,2.05955059,0.01424843,-0.00040243,0.01978615,0.69494526,0.00000000,0.00000000,0.00000000,0.61448867,0.00000000,0.00000000,-0.00000000,0.64256796,-4.71670341,-0.22109392,-8.90532494,10291009.21005011,0.00000000,0.00000000,0.00000000,7348085.28795838,0.00000000,0.00000000,-0.00000000,9135388.76920938,-0.68615568,1.76727716,2.10374914,0.01638011,-0.22939114,0.02582127,0.97285387
0.78022053,0.56603014,0.78791940,-0.14760996,0.19236480,1.79919728,0.39287532,1.11712360,0.39287535,2.84856375,1.75728270,1.11712353,1.75728270,2.05961764,0.00150409,0.00209499,0.02246282,0.69494526,0.00000000,0.00000000,0.00000000,0.61448867,0.00000000,0.00000000,-0.00000000,0.64256796,-4.73817778,-0.24279897,-8.85758305,10291009.21005011,0.00000000,0.00000000,0.00000000,7348085.28795838,0.00000000,0.00000000,-0.00000000,9135388.76920938,-0.68583958,1.76770964,2.10380291,0.01654054,-0.22930729,0.02579195,0.97287170
0.78516056,0.56605232,0.78789848,-0.14768066,0.19233106,1.79947613,0.39308248,1.11730506,0.39308241,2.84861001,1.75735695,1.11730499,1.75735722,2.05962512,-0.00114584,0.00154136,0.02353640,0.69494526,0.00000000,0.00000000,0.00000000,0.61448867,0.00000000,0.00000000,-0.00000000,0.64256796,-4.75010824,-0.24531095,-8.84802818,10291009.21005011,0.00000000,0.00000000,0.00000000,7348085.28795838,0.00000000,0.00000000,-0.00000000,9135388.76920938,-0.68582618,1.76772744,2.10380614,0.01655010,-0.22930562,0.02579094,0.97287196
0.79010059,0.56607372,0.78787833,-0.14775269,0.19229512,1.79975650,0.39328552,1.11748868,0.39328552,2.84863356,1.75741610,1.11748881,1.75741610,2.05962844,-0.00114371,0.00206865,0.01974493,0.69494526,0.00000000,0.00000000,0.00000000,0.61448867,0.00000000,0.00000000,-0.00000000,0.64256796,-4.75244188,-0.23579451,-8.87427425,10291009.21005011,0.00000000,0.00000000,0.00000000,7348085.28795838,0.00000000,0.00000000,-0.00000000,9135388.76920938,-0.68572026,1.76786639,2.10383421,0.01663561,-0.22930269,0.02578782,0.97287128
0.79504063,0.56609428,0.78786254,-0.14781903,0.19224830,1.80007455,0.39347222,1.11770318,0.39347222,2.84871557,1.75753731,1.11770325,1.75753744,2.05972056,-0.00011461,0.00628556,0.02138204,0.69494526,0.00000000,0.00000000,0.00000000,0.61448867,0.00000000,0.00000000,-0.00000000,0.64256796,-4.75721407,-0.22391176,-8.91007137,10291009.21005011,0.00000000,0.00000000,0.00000000,7348085.28795838,0.00000000,0.00000000,-0.00000000,9135388.76920938,-0.68561487,1.76800149,2.10386669,0.01673884,-0.22932048,0.02579551,0.97286511
0.79998066,0.56611484,0.78784811,-0.14788546,0.19219567,1.80041768,0.39364752,1.11793112,0.39364745,2.84881780,1.75767195,1.11793112,1.75767209,2.05983166,0.00200593,0.00683430,0.01813774,0.69494526,0.00000000,0.00000000,0.00000000,0.61448867,0.00000000,0.00000000,-0.00000000,0.64256796,-4.76431894,-0.21683207,-8.93631935,10291009.21005011,0.00000000,0.00000000,0.00000000,7348085.28795838,0.00000000,0.00000000,-0.00000000,9135388.76920938,-0.68550345,1.76814087,2.10390595,0.01686260,-0.22935596,0.02581188,0.97285417
0.80492069,0.56613815,0.78783679,-0.14794801,0.19212534,1.80087398,0.39382580,1.11824460,0.39382566,2.84905107,1.75792850,1.11824460,1.75792864,2.06009250,0.00355349,0.01368684,0.01815937,0.69494526,0.00000000,0.00000000,0.00000000,0.61448867,0.00000000,0.00000000,-0.00000000,0.64256796,-4.77624941,-0.21218431,-8.94585705,10291009.21005011,0.00000000,0.00000000,0.00000000,7348085.28795838,0.00000000,0.00000000,-0.00000000,9135388.76920938,-0.68539425,1.76827406,2.10394940,0.01699131,-0.22939800,0.02583006,0.97284154
0.80986047,0.56615746,0.78783405,-0.14800374,0.19203685,1.80136130,0.39395906,1.11858011,0.39395899,2.84931233,1.75823131,1.11858011,1.75823131,2.06043992,0.00561854,0.02317527,0.01493750,0.69494526,0.00000000,0.00000000,0.00000000,0.61448867,0.00000000,0.00000000,-0.00000000,0.64256796,-4.78335476,-0.20033148,-8.94583702,10291009.21005011,0.00000000,0.00000000,0.00000000,7348085.28795838,0.00000000,0.00000000,-0.00000000,9135388.76920938,-0.68528044,1.76840927,2.10399994,0.01712645,-0.22944057,0.02584548,0.97282872
0.81480050,0.56617910,0.78783143,-0.14805473,0.19194438,1.80189919,0.39410077,1.11894920,0.39410063,2.84968330,1.75860782,1.11894907,1.75860782,2.06084302,0.00454881,0.02421555,0.01601952,0.69494526,0.00000000,0.00000000,0.00000000,0.61448867,0.00000000,0.00000000,-0.00000000,0.64256796,-4.77858257,-0.18118861,-8.92194653,10291009.21005011,0.00000000,0.00000000,0.00000000,7348085.28795838,0.00000000,0.00000000,-0.00000000,9135388.76920938,-0.68516184,1.76854633,2.10405831,0.01726179,-0.22947524,0.02585266,0.97281796
0.82962059,0.56623882,0.78781939,-0.14824156,0.19167337,1.80337433,0.39460836,1.11996652,0.39460832,2.85032771,1.75943204,1.11996666,1.75943217,2.06175313,0.01407175,0.03010111,0.01065129,0.69494526,0.00000000,0.00000000,0.00000000,0.61448867,0.00000000,0.00000000,-0.00000000,0.64256796,-4.75952053,-0.16666600,-8.76198292,10291009.21005011,0.00000000,0.00000000,0.00000000,7348085.28795838,0.00000000,0.00000000,-0.00000000,9135388.76920938,-0.68473002,1.76901454,2.10430989,0.01762861,-0.22946740,0.02585665,0.97281313
0.84691058,0.56632668,0.78777421,-0.14844634,0.19144081,1.80510547,0.39547836,1.12123603,0.39547850,2.85135307,1.76048454,1.12123617,1.76048426,2.06275396,0.01189018,0.03691209,0.01715672,0.69494526,0.00000000,0.00000000,0.00000000,0.61448867,0.00000000,0.00000000,-0.00000000,0.64256796,-4.75236225,-0.14272490,-8.71182728,10291009.21005011,0.00000000,0.00000000,0.00000000,7348085.28795838,0.00000000,0.00000000,-0.00000000,9135388.76920938,-0.68437553,1.76936733,2.10454615,0.01772630,-0.22930328,0.02592873,0.97284813
0.85185061,0.56636590,0.78774971,-0.14849190,0.19139037,1.80577108,0.39581521,1.12174025,0.39581535,2.85203765,1.76100650,1.12174039,1.76100622,2.06320874,0.01241267,0.03586345,0.02094166,0.69494526,0.00000000,0.00000000,0.00000000,0.61448867,0.00000000,0.00000000,-0.00000000,0.64256796,-4.74517775,-0.14026546,-8.70227623,10291009.21005011,0.00000000,0.00000000,0.00000000,7348085.28795838,0.00000000,0.00000000,-0.00000000,9135388.76920938,-0.68427233,1.76946543,2.10461830,0.01773209,-0.22924806,0.02596360,0.97286011
0.85679064,0.56641024,0.78772247,-0.14852567,0.19134493,1.80652146,0.39617385,1.12231651,0.39617385,2.85293612,1.76165950,1.12231665,1.76165936,2.06378195,0.01080490,0.03742326,0.02364708,0.69494526,0.00000000,0.00000000,0.00000000,0.61448867,0.00000000,0.00000000,-0.00000000,0.64256796,-4.74040556,-0.13305555,-8.68556023,10291009.21005011,0.00000000,0.00000000,0.00000000,7348085.28795838,0.00000000,0.00000000,-0.00000000,9135388.76920938,-0.68412918,1.76959844,2.10472035,0.01773243,-0.22917785,0.02602063,0.97287512
0.86173068,0.56646115,0.78768921,-0.14855696,0.19130681,1.80734623,0.39657536,1.12295282,0.39657522,2.85398641,1.76239312,1.12295275,1.76239312,2.06441140,0.01027133,0.03794342,0.02473151,0.69494526,0.00000000,0.00000000,0.00000000,0.61448867,0.00000000,0.00000000,-0.00000000,0.64256796,-4.72850180,-0.12099479,-8.67123413,10291009.21005011,0.00000000,0.00000000,0.00000000,7348085.28795838,0.00000000,0.00000000,-0.00000000,9135388.76920938,-0.68398279,1.76973107,2.10482699,0.01772843,-0.22911546,0.02608637,0.97288813
0.86667045,0.56651866,0.78765178,-0.14858039,0.19127230,1.80826714,0.39701047,1.12366518,0.39701057,2.85525085,1.76325627,1.12366518,1.76325599,2.06514946,0.00973017,0.03793594,0.02851833,0.69494526,0.00000000,0.00000000,0.00000000,0.61448867,0.00000000,0.00000000,-0.00000000,0.64256796,-4.69986868,-0.12308038,-8.67125320,10291009.21005011,0.00000000,0.00000000,0.00000000,7348085.28795838,0.00000000,0.00000000,-0.00000000,9135388.76920938,-0.68384124,1.76985638,2.10493246,0.01772390,-0.22906078,0.02615275,0.97289930
0.87161048,0.56658351,0.78760892,-0.14859642,0.19124424,1.80928390,0.39748654,1.12445574,0.39748657,2.85672447,1.76424699,1.12445574,1.76424713,2.06599279,0.00705936,0.03843142,0.03446525,0.69494526,0.00000000,0.00000000,0.00000000,0.61448867,0.00000000,0.00000000,-0.00000000,0.64256796,-4.67839336,-0.13478757,-8.66650295,10291009.21005011,0.00000000,0.00000000,0.00000000,7348085.28795838,0.00000000,0.00000000,-0.00000000,9135388.76920938,-0.68369774,1.76998077,2.10504190,0.01772174,-0.22900776,0.02621897,0.97291004
0.87655052,0.56665170,0.78756249,-0.14861287,0.19122072,1.81033793,0.39798225,1.12527511,0.39798218,2.85826513,1.76526099,1.12527511,1.76526112,2.06684748,0.00920061,0.03740325,0.03339515,0.69494526,0.00000000,0.00000000,0.00000000,0.61448867,0.00000000,0.00000000,-0.00000000,0.64256796,-4.65702486,-0.13932534,-8.64265442,10291009.21005011,0.00000000,0.00000000,0.00000000,7348085.28795838,0.00000000,0.00000000,-0.00000000,9135388.76920938,-0.68354960,1.77010669,2.10515766,0.01772500,-0.22895251,0.02628253,0.97292127
0.88149055,0.56672484,0.78751230,-0.14862345,0.19120260,1.81145416,0.39850968,1.12614753,0.39850971,2.85995263,1.76636655,1.12614753,1.76636682,2.06777642,0.00866256,0.03792280,0.03501854,0.69494526,0.00000000,0.00000000,0.00000000,0.61448867,0.00000000,0.00000000,-0.00000000,0.64256796,-4.63793612,-0.15105762,-8.61402702,10291009.21005011,0.00000000,0.00000000,0.00000000,7348085.28795838,0.00000000,0.00000000,-0.00000000,9135388.76920938,-0.68338691,1.77024250,2.10528806,0.01773740,-0.22888898,0.02634351,0.97293435
0.89631064,0.56696087,0.78733915,-0.14865157,0.19119418,1.81487958,0.40021383,1.12882929,0.40021383,2.86532127,1.76978088,1.12882922,1.76978102,2.07054303,0.00657659,0.02948456,0.03823189,0.69494526,0.00000000,0.00000000,0.00000000,0.61448867,0.00000000,0.00000000,-0.00000000,0.64256796,-4.57820415,-0.19100976,-8.58783150,10291009.21005011,0.00000000,0.00000000,0.00000000,7348085.28795838,0.00000000,0.00000000,-0.00000000,9135388.76920938,-0.68285714,1.77067501,2.10573319,0.01785456,-0.22865814,0.02645778,0.97298338
0.91113048,0.56717545,0.78717059,-0.14870268,0.19121183,1.81785701,0.40181282,1.13116889,0.40181271,2.86993633,1.77266523,1.13116896,1.77266523,2.07280568,0.00342239,0.02735083,0.03388813,0.69494526,0.00000000,0.00000000,0.00000000,0.61448867,0.00000000,0.00000000,-0.00000000,0.64256796,-4.54241323,-0.20733961,-8.68337059,10291009.21005011,0.00000000,0.00000000,0.00000000,7348085.28795838,0.00000000,0.00000000,-0.00000000,9135388.76920938,-0.68242255,1.77102922,2.10611779,0.01804857,-0.22845120,0.02645661,0.97302844
0.91854066,0.56726706,0.78710032,-0.14875604,0.19118802,1.81917382,0.40250807,1.13218358,0.40250807,2.87171498,1.77382163,1.13218351,1.77382163,2.07373434,0.00289292,0.02576633,0.03604521,0.69494526,0.00000000,0.00000000,0.00000000,0.61448867,0.00000000,0.00000000,-0.00000000,0.64256796,-4.51852608,-0.19993147,-8.68337631,10291009.21005011,0.00000000,0.00000000,0.00000000,7348085.28795838,0.00000000,0.00000000,-0.00000000,9135388.76920938,-0.68226549,1.77115915,2.10626036,0.01814063,-0.22837854,0.02644408,0.97304413
0.92348069,0.56732059,0.78706658,-0.14880081,0.19113295,1.82007063,0.40287633,1.13285403,0.40287640,2.87275225,1.77456038,1.13285417,1.77456038,2.07440965,0.00185395,0.02365346,0.03333100,0.69494526,0.00000000,0.00000000,0.00000000,0.61448867,0.00000000,0.00000000,-0.00000000,0.64256796,-4.50659609,-0.18787310,-8.68814754,10291009.21005011,0.00000000,0.00000000,0.00000000,7348085.28795838,0.00000000,0.00000000,-0.00000000,9135388.76920938,-0.68210406,1.77129418,2.10640871,0.01824676,-0.22830736,0.02642819,0.97305928
0.92842047,0.56737775,0.78704578,-0.14882544,0.19102986,1.82123174,0.40317215,1.13370360,0.40317222,2.87419068,1.77563962,1.13370388,1.77563948,2.07548833,0.00401235,0.02104861,0.03172021,0.69494526,0.00000000,0.00000000,0.00000000,0.61448867,0.00000000,0.00000000,-0.00000000,0.64256796,-4.52107096,-0.18323594,-8.69053650,10291009.21005011,0.00000000,0.00000000,0.00000000,7348085.28795838,0.00000000,0.00000000,-0.00000000,9135388.76920938,-0.68193649,1.77143573,2.10656467,0.01836751,-0.22823860,0.02641100,0.97307360
0.93336050,0.56743830,0.78703040,-0.14883089,0.19090934,1.82253940,0.40342974,1.13464986,0.40342977,2.87595104,1.77693967,1.13464993,1.77693953,2.07678602,0.00615505,0.01844220,0.02955484,0.69494526,0.00000000,0.00000000,0.00000000,0.61448867,0.00000000,0.00000000,-0.00000000,0.64256796,-4.53777361,-0.18341149,-8.70485115,10291009.21005011,0.00000000,0.00000000,0.00000000,7348085.28795838,0.00000000,0.00000000,-0.00000000,9135388.76920938,-0.68176494,1.77158186,2.10672645,0.01850032,-0.22817512,0.02639541,0.97308640
0.93830053,0.56749552,0.78702354,-0.14882064,0.19077535,1.82389306,0.40362876,1.13562888,0.40362890,2.87783774,1.77833419,1.13562881,1.77833405,2.07821227,0.00771842,0.02371912,0.02361051,0.69494526,0.00000000,0.00000000,0.00000000,0.61448867,0.00000000,0.00000000,-0.00000000,0.64256796,-4.54243994,-0.18585792,-8.70961571,10291009.21005011,0.00000000,0.00000000,0.00000000,7348085.28795838,0.00000000,0.00000000,-0.00000000,9135388.76920938,-0.68160929,1.77171528,2.10687510,0.01862720,-0.22812478,0.02638531,0.97309605
0.94324056,0.56754839,0.78702193,-0.14879985,0.19064069,1.82520460,0.40378013,1.13657001,0.40378017,2.87974549,1.77973300,1.13657015,1.77973300,2.07963906,0.00721430,0.02108612,0.02035529,0.69494526,0.00000000,0.00000000,0.00000000,0.61448867,0.00000000,0.00000000,-0.00000000,0.64256796,-4.53766775,-0.18580776,-8.70484352,10291009.21005011,0.00000000,0.00000000,0.00000000,7348085.28795838,0.00000000,0.00000000,-0.00000000,9135388.76920938,-0.68144409,1.77185752,2.10703485,0.01876646,-0.22807836,0.02637955,0.97310442
0.94818059,0.56760031,0.78702170,-0.14877747,0.19050467,1.82650825,0.40392018,1.13750283,0.40392018,2.88165879,1.78112821,1.13750283,1.78112821,2.08106531,0.01199610,0.01903157,0.01982004,0.69494526,0.00000000,0.00000000,0.00000000,0.61448867,0.00000000,0.00000000,-0.00000000,0.64256796,-4.54241323,-0.18347377,-8.70483589,10291009.21005011,0.00000000,0.00000000,0.00000000,7348085.28795838,0.00000000,0.00000000,-0.00000000,9135388.76920938,-0.68128599,1.77199401,2.10718973,0.01890181,-0.22803758,0.02637725,0.97311141
0.96300069,0.56772280,0.78705049,-0.14870495,0.19007692,1.83005793,0.40413136,1.14002888,0.40413140,2.88676589,1.78495203,1.14002881,1.78495175,2.08510217,0.01998741,0.01806751,0.00901829,0.69494526,0.00000000,0.00000000,0.00000000,0.61448867,0.00000000,0.00000000,-0.00000000,0.64256796,-4.54482603,-0.15247080,-8.82657051,10291009.21005011,0.00000000,0.00000000,0.00000000,7348085.28795838,0.00000000,0.00000000,-0.00000000,9135388.76920938,-0.68066705,1.77252746,2.10781561,0.01940848,-0.22785512,0.02637000,0.97314438
0.97782053,0.56783491,0.78710580,-0.14860059,0.18959382,1.83377924,0.40423872,1.14269429,0.40423899,2.89210710,1.78901411,1.14269436,1.78901397,2.08951499,0.03156811,0.03291415,0.00204596,0.69494526,0.00000000,0.00000000,0.00000000,0.61448867,0.00000000,0.00000000,-0.00000000,0.64256796,-4.51372766,-0.14499222,-8.96743774,10291009.21005011,0.00000000,0.00000000,0.00000000,7348085.28795838,0.00000000,0.00000000,-0.00000000,9135388.76920938,-0.68018489,1.77293983,2.10832172,0.01971368,-0.22763255,0.02636711,0.97319041
0.98276056,0.56788027,0.78712296,-0.14855953,0.18941882,1.83520673,0.40431151,1.14372124,0.40431144,2.89416695,1.79056918,1.14372145,1.79056932,2.09118199,0.03104138,0.03238285,0.00204314,0.69494526,0.00000000,0.00000000,0.00000000,0.61448867,0.00000000,0.00000000,-0.00000000,0.64256796,-4.52327156,-0.14509255,-8.92206955,10291009.21005011,0.00000000,0.00000000,0.00000000,7348085.28795838,0.00000000,0.00000000,-0.00000000,9135388.76920938,-0.68008505,1.77302496,2.10842802,0.01976113,-0.22757550,0.02637038,0.97320270
1.00005055,0.56808478,0.78714108,-0.14840633,0.18884948,1.84072400,0.40487323,1.14772610,0.40487316,2.90239305,1.79659802,1.14772597,1.79659802,2.09742748,0.02730882,0.02970792,0.01718383,0.69494526,0.00000000,0.00000000,0.00000000,0.61448867,0.00000000,0.00000000,-0.00000000,0.64256796,-4.47560310,-0.13981289,-8.88389874,10291009.21005011,0.00000000,0.00000000,0.00000000,7348085.28795838,0.00000000,0.00000000,-0.00000000,9135388.76920938,-0.67952054,1.77350579,2.10904072,0.01994187,-0.22725806,0.02645047,0.97327102
1.00499058,0.56816179,0.78713101,-0.14834788,0.18870582,1.84253104,0.40513576,1.14905102,0.40513594,2.90526937,1.79862019,1.14905109,1.79861991,2.09943622,0.02519580,0.02547576,0.02366156,0.69494526,0.00000000,0.00000000,0.00000000,0.61448867,0.00000000,0.00000000,-0.00000000,0.64256796,-4.48037529,-0.13747647,-8.86718082,10291009.21005011,0.00000000,0.00000000,0.00000000,7348085.28795838,0.00000000,0.00000000,-0.00000000,9135388.76920938,-0.67940320,1.77360581,2.10917120,0.01996501,-0.22720618,0.02648497,0.97328171
1.00993061,0.56824940,0.78711241,-0.14828821,0.18856648,1.84448825,0.40546659,1.15049561,0.40546659,2.90838532,1.80078975,1.15049555,1.80078961,2.10157170,0.02412298,0.02598901,0.02690702,0.69494526,0.00000000,0.00000000,0.00000000,0.61448867,0.00000000,0.00000000,-0.00000000,0.64256796,-4.49946356,-0.14483689,-8.81942558,10291009.21005011,0.00000000,0.00000000,0.00000000,7348085.28795838,0.00000000,0.00000000,-0.00000000,9135388.76920938,-0.67924175,1.77374362,2.10935324,0.01999243,-0.22714447,0.02654066,0.97329404
1.01487064,0.56835836,0.78707546,-0.14822091,0.18844494,1.84669494,0.40593557,1.15213047,0.40593564,2.91202075,1.80326047,1.15213061,1.80326047,2.10391262,0.02093258,0.02068986,0.04149695,0.69494526,0.00000000,0.00000000,0.00000000,0.61448867,0.00000000,0.00000000,-0.00000000,0.64256796,-4.52332449,-0.16418040,-8.75974083,10291009.21005011,0.00000000,0.00000000,0.00000000,7348085.28795838,0.00000000,0.00000000,-0.00000000,9135388.76920938,-0.67907130,1.77388940,2.10954920,0.02001896,-0.22708963,0.02660612,0.97330450
1.03463051,0.56896383,0.78676963,-0.14783894,0.18819502,1.85739591,0.40881974,1.16017920,0.40881977,2.93100407,1.81556694,1.16017927,1.81556694,2.11497778,-0.00879698,0.00563504,0.09117011,0.69494526,0.00000000,0.00000000,0.00000000,0.61448867,0.00000000,0.00000000,-0.00000000,0.64256796,-4.52576399,-0.20715921,-8.81708717,10291009.21005011,0.00000000,0.00000000,0.00000000,7348085.28795838,0.00000000,0.00000000,-0.00000000,9135388.76920938,-0.67844178,1.77443419,2.11032126,0.02016367,-0.22693910,0.02682369,0.97333065
1.04945061,0.56963676,0.78635794,-0.14742228,0.18820673,1.86823985,0.41227155,1.16842145,0.41227165,2.95116873,1.82820323,1.16842159,1.82820309,2.12587116,-0.03060862,-0.00144655,0.13221977,0.69494526,0.00000000,0.00000000,0.00000000,0.61448867,0.00000000,0.00000000,-0.00000000,0.64256796,-4.56630039,-0.21952099,-8.92450905,10291009.21005011,0.00000000,0.00000000,0.00000000,7348085.28795838,0.00000000,0.00000000,-0.00000000,9135388.76920938,-0.67799202,1.77484228,2.11094188,0.02042418,-0.22681488,0.02679677,0.97335492
1.05439064,0.56990165,0.78619444,-0.14724533,0.18822645,1.87251844,0.41363577,1.17168867,0.41363563,2.95919564,1.83322514,1.17168854,1.83322528,2.13021236,-0.04021812,0.00476044,0.14249129,0.69494526,0.00000000,0.00000000,0.00000000,0.61448867,0.00000000,0.00000000,-0.00000000,0.64256796,-4.53528166,-0.23351440,-8.98900509,10291009.21005011,0.00000000,0.00000000,0.00000000,7348085.28795838,0.00000000,0.00000000,-0.00000000,9135388.76920938,-0.67785063,1.77497638,2.11115366,0.02055194,-0.22676002,0.02672925,0.97336687
1.06427045,0.57047224,0.78582567,-0.14686835,0.18833262,1.88150268,0.41661971,1.17854381,0.41661957,2.97635627,1.84381128,1.17854395,1.84381142,2.13919675,-0.04976937,-0.00376263,0.16300620,0.69494526,0.00000000,0.00000000,0.00000000,0.61448867,0.00000000,0.00000000,-0.00000000,0.64256796,-4.50423574,-0.26898956,-9.01531792,10291009.21005011,0.00000000,0.00000000,0.00000000,7348085.28795838,0.00000000,0.00000000,-0.00000000,9135388.76920938,-0.67748776,1.77533673,2.11174446,0.02100230,-0.22656528,0.02639913,0.97341161
1.06921048,0.57077712,0.78562313,-0.14666706,0.18841070,1.88624893,0.41823972,1.18217231,0.41823961,2.98548223,1.84941153,1.18217217,1.84941167,2.14391308,-0.05717619,-0.00646971,0.16894292,0.69494526,0.00000000,0.00000000,0.00000000,0.61448867,0.00000000,0.00000000,-0.00000000,0.64256796,-4.44471645,-0.28982970,-9.10611153,10291009.21005011,0.00000000,0.00000000,0.00000000,7348085.28795838,0.00000000,0.00000000,-0.00000000,9135388.76920938,-0.67745452,1.77537096,2.11180250,0.02105397,-0.22654489,0.02635819,0.97341635
1.07415051,0.57108039,0.78542662,-0.14645934,0.18847245,1.89109602,0.41983645,1.18588461,0.41983652,2.99471430,1.85510528,1.18588461,1.85510542,2.14878912,-0.05566820,0.00932544,0.16357507,0.69494526,0.00000000,0.00000000,0.00000000,0.61448867,0.00000000,0.00000000,-0.00000000,0.64256796,-4.35165930,-0.33419663,-9.20410061,10291009.21005011,0.00000000,0.00000000,0.00000000,7348085.28795838,0.00000000,0.00000000,-0.00000000,9135388.76920938,-0.67734129,1.77548898,2.11200585,0.02124620,-0.22647791,0.02620937,0.97343178
1.07909055,0.57138157,0.78523511,-0.14623509,0.18853162,1.89596597,0.42139560,1.18959955,0.42139553,3.00412118,1.86090708,1.18959955,1.86090722,2.15373498,-0.06780114,0.00026103,0.16297709,0.69494526,0.00000000,0.00000000,0.00000000,0.61448867,0.00000000,0.00000000,-0.00000000,0.64256796,-4.34927368,-0.36758375,-9.24233341,10291009.21005011,0.00000000,0.00000000,0.00000000,7348085.28795838,0.00000000,0.00000000,-0.00000000,9135388.76920938,-0.67721857,1.77561915,2.11223665,0.02148606,-0.22641690,0.02603728,0.97344532
1.08650047,0.57181209,0.78496593,-0.14588276,0.18862040,1.90304289,0.42357064,1.19501625,0.42357060,3.01796776,1.86942727,1.19501625,1.86942741,2.16108867,-0.06154756,0.01926050,0.15437233,0.69494526,0.00000000,0.00000000,0.00000000,0.61448867,0.00000000,0.00000000,-0.00000000,0.64256796,-4.38015985,-0.41088048,-9.01314354,10291009.21005011,0.00000000,0.00000000,0.00000000,7348085.28795838,0.00000000,0.00000000,-0.00000000,9135388.76920938,-0.67708564,1.77576238,2.11249999,0.02178887,-0.22637790,0.02584866,0.97345269
1.09638053,0.57231885,0.78464240,-0.14550331,0.18872260,1.91132814,0.42616561,1.20130565,0.42616575,3.03406951,1.87928519,1.20130565,1.87928519,2.16946881,-0.06559428,-0.00338522,0.13535981,0.69494526,0.00000000,0.00000000,0.00000000,0.61448867,0.00000000,0.00000000,-0.00000000,0.64256796,-4.38729191,-0.42050448,-8.72425652,10291009.21005011,0.00000000,0.00000000,0.00000000,7348085.28795838,0.00000000,0.00000000,-0.00000000,9135388.76920938,-0.67677604,1.77610126,2.11317437,0.02267992,-0.22642277,0.02541805,0.97343324
1.11614066,0.57300788,0.78419316,-0.14501008,0.18887872,1.92255177,0.42962794,1.20978138,0.42962784,3.05609094,1.89262851,1.20978124,1.89262851,2.18075630,-0.03568966,-0.00988459,0.07752815,0.69494526,0.00000000,0.00000000,0.00000000,0.61448867,0.00000000,0.00000000,-0.00000000,0.64256796,-4.40648651,-0.40398937,-8.50697517,10291009.21005011,0.00000000,0.00000000,0.00000000,7348085.28795838,0.00000000,0.00000000,-0.00000000,9135388.76920938,-0.67645487,1.77644884,2.11397766,0.02381032,-0.22652555,0.02486295,0.97339667
1.12108069,0.57310557,0.78412759,-0.14496419,0.18888956,1.92413565,0.43011984,1.21095731,0.43011984,3.05908611,1.89444235,1.21095717,1.89444221,2.18227120,-0.03352154,-0.00985381,0.06021387,0.69494526,0.00000000,0.00000000,0.00000000,0.61448867,0.00000000,0.00000000,-0.00000000,0.64256796,-4.44225121,-0.38288873,-8.55467892,10291009.21005011,0.00000000,0.00000000,0.00000000,7348085.28795838,0.00000000,0.00000000,-0.00000000,9135388.76920938,-0.67637776,1.77652919,2.11418582,0.02409003,-0.22653591,0.02470433,0.97339142
1.13590053,0.57326061,0.78404135,-0.14492969,0.18880372,1.92697609,0.43080862,1.21301148,0.43080841,3.06404970,1.89757424,1.21301121,1.89757437,2.18503960,-0.01707102,0.00505960,0.02132934,0.69494526,0.00000000,0.00000000,0.00000000,0.61448867,0.00000000,0.00000000,-0.00000000,0.64256796,-4.51619291,-0.36934918,-8.70503330,10291009.21005011,0.00000000,0.00000000,0.00000000,7348085.28795838,0.00000000,0.00000000,-0.00000000,9135388.76920938,-0.67607641,1.77681926,2.11503707,0.02507286,-0.22648183,0.02404865,0.97339560
1.14084056,0.57326740,0.78405535,-0.14493808,0.18871845,1.92742020,0.43074521,1.21330557,0.43074531,3.06460684,1.89802679,1.21330543,1.89802679,2.18557860,-0.00860999,0.01514587,0.00676623,0.69494526,0.00000000,0.00000000,0.00000000,0.61448867,0.00000000,0.00000000,-0.00000000,0.64256796,-4.52573729,-0.36706290,-8.75277424,10291009.21005011,0.00000000,0.00000000,0.00000000,7348085.28795838,0.00000000,0.00000000,-0.00000000,9135388.76920938,-0.67600084,1.77688431,2.11525605,0.02527726,-0.22645530,0.02389244,0.97340033
1.14578059,0.57325912,0.78408384,-0.14495622,0.18861136,1.92769101,0.43058889,1.21345795,0.43058875,3.06477750,1.89827115,1.21345781,1.89827101,2.18596258,-0.00329609,0.01836154,-0.00457587,0.69494526,0.00000000,0.00000000,0.00000000,0.61448867,0.00000000,0.00000000,-0.00000000,0.64256796,-4.52812338,-0.35515508,-8.75992393,10291009.21005011,0.00000000,0.00000000,0.00000000,7348085.28795838,0.00000000,0.00000000,-0.00000000,9135388.76920938,-0.67590720,1.77695983,2.11552801,0.02550132,-0.22642498,0.02371449,0.97340589
1.15072063,0.57322919,0.78413391,-0.14496526,0.18848711,1.92772010,0.43027409,1.21343093,0.43027402,3.06457914,1.89833072,1.21343107,1.89833072,2.18624628,-0.00702783,0.02516353,-0.01160463,0.69494526,0.00000000,0.00000000,0.00000000,0.61448867,0.00000000,0.00000000,-0.00000000,0.64256796,-4.57823086,-0.29363057,-8.73595810,10291009.21005011,0.00000000,0.00000000,0.00000000,7348085.28795838,0.00000000,0.00000000,-0.00000000,9135388.76920938,-0.67579086,1.77704550,2.11586498,0.02573312,-0.22639526,0.02352303,0.97341135
1.16554047,0.57321876,0.78423965,-0.14496994,0.18807478,1.92923472,0.42984917,1.21441695,0.42984903,3.06627245,1.90000007,1.21441667,1.90000035,2.18839091,0.00294473,0.03367188,0.00576737,0.69494526,0.00000000,0.00000000,0.00000000,0.61448867,0.00000000,0.00000000,-0.00000000,0.64256796,-4.77394295,-0.13100804,-8.58527374,10291009.21005011,0.00000000,0.00000000,0.00000000,7348085.28795838,0.00000000,0.00000000,-0.00000000,9135388.76920938,-0.67548167,1.77723099,2.11674311,0.02613682,-0.22630247,0.02314538,0.97343123
1.18283045,0.57339483,0.78434646,-0.14455909,0.18740779,1.93593042,0.42994385,1.21942791,0.42994385,3.07785500,1.90848909,1.21942819,1.90848923,2.19747919,-0.01981112,0.09863519,0.03183404,0.69494526,0.00000000,0.00000000,0.00000000,0.61448867,0.00000000,0.00000000,-0.00000000,0.64256796,-4.39680958,-0.16046928,-8.43988419,10291009.21005011,0.00000000,0.00000000,0.00000000,7348085.28795838,0.00000000,0.00000000,-0.00000000,9135388.76920938,-0.67517777,1.77736503,2.11756526,0.02634562,-0.22611231,0.02288234,0.97347600
1.18777048,0.57344538,0.78435117,-0.14446917,0.18730265,1.93738409,0.43005654,1.22047723,0.43005650,3.08066648,1.91037011,1.22047709,1.91036997,2.19925188,-0.02483842,0.05861902,0.02631366,0.69494526,0.00000000,0.00000000,0.00000000,0.61448867,0.00000000,0.00000000,-0.00000000,0.64256796,-4.42074966,-0.07002255,-7.93125105,10291009.21005011,0.00000000,0.00000000,0.00000000,7348085.28795838,0.00000000,0.00000000,-0.00000000,9135388.76920938,-0.67511848,1.77738758,2.11771985,0.02637972,-0.22606129,0.02283448,0.97348805
1.20259058,0.57393336,0.78403807,-0.14425142,0.18728690,1.94573528,0.43333374,1.22689242,0.43333367,3.09537911,1.91973475,1.22689242,1.91973489,2.20718224,-0.01223124,0.03503794,0.11450389,0.69494526,0.00000000,0.00000000,0.00000000,0.61448867,0.00000000,0.00000000,-0.00000000,0.64256796,-4.64742708,0.16625327,-7.93565845,10291009.21005011,0.00000000,0.00000000,0.00000000,7348085.28795838,0.00000000,0.00000000,-0.00000000,9135388.76920938,-0.67477810,1.77750579,2.11856218,0.02660723,-0.22568315,0.02255163,0.97357619
1.20753061,0.57416099,0.78388959,-0.14397323,0.18742464,1.94955563,0.43465903,1.22993537,0.43465900,3.10358887,1.92482938,1.22993523,1.92482966,2.21152885,-0.09410983,0.06942681,0.12680718,0.69494526,0.00000000,0.00000000,0.00000000,0.61448867,0.00000000,0.00000000,-0.00000000,0.64256796,-4.60683727,0.18099675,-8.59462070,10291009.21005011,0.00000000,0.00000000,0.00000000,7348085.28795838,0.00000000,0.00000000,-0.00000000,9135388.76920938,-0.67470571,1.77752993,2.11872964,0.02666671,-0.22558839,0.02249360,0.97359787
1.21247064,0.57446921,0.78370702,-0.14364579,0.18749475,1.95503384,0.43637327,1.23418709,0.43637344,3.11470210,1.93169421,1.23418709,1.93169408,2.21751682,-0.06044249,0.08710157,0.17619453,0.69494526,0.00000000,0.00000000,0.00000000,0.61448867,0.00000000,0.00000000,-0.00000000,0.64256796,-4.50662184,0.13431850,-8.50877762,10291009.21005011,0.00000000,0.00000000,0.00000000,7348085.28795838,0.00000000,0.00000000,-0.00000000,9135388.76920938,-0.67460276,1.77756456,2.11895949,0.02676214,-0.22544884,0.02241393,0.97362941
