time_s,orientation_x,orientation_y,orientation_z,orientation_w,orientation_covariance_0,orientation_covariance_1,orientation_covariance_2,orientation_covariance_3,orientation_covariance_4,orientation_covariance_5,orientation_covariance_6,orientation_covariance_7,orientation_covariance_8,angular_velocity_x,angular_velocity_y,angular_velocity_z,angular_velocity_covariance_0,angular_velocity_covariance_1,angular_velocity_covariance_2,angular_velocity_covariance_3,angular_velocity_covariance_4,angular_velocity_covariance_5,angular_velocity_covariance_6,angular_velocity_covariance_7,angular_velocity_covariance_8,linear_acceleration_x,linear_acceleration_y,linear_acceleration_z,linear_acceleration_covariance_0,linear_acceleration_covariance_1,linear_acceleration_covariance_2,linear_acceleration_covariance_3,linear_acceleration_covariance_4,linear_acceleration_covariance_5,linear_acceleration_covariance_6,linear_acceleration_covariance_7,linear_acceleration_covariance_8,x,y,z,w,rot_x,rot_y,rot_z
-0.00157785,-0.95266449,0.23562227,0.18604445,0.04795795,0.22217392,0.22789767,-0.07259886,0.22789767,0.29379487,-0.22057307,-0.07259888,-0.22057311,0.51664694,0.00684272,0.03433253,-0.00035832,0.69494526,0.00000000,0.00000000,0.00000000,0.61448867,0.00000000,0.00000000,-0.00000000,0.64256796,-3.63122940,0.01180306,-9.02472019,10291009.21005011,0.00000000,0.00000000,0.00000000,7348085.28795838,0.00000000,0.00000000,-0.00000000,9135388.76920938,0.67961370,0.79080550,2.17579100,0.96302283,0.03730706,0.25071712,-0.09130244
0.01325710,-0.95269525,0.23569006,0.18586783,0.04769811,0.22187876,0.22786361,-0.07271726,0.22786359,0.29376436,-0.22043282,-0.07271724,-0.22043280,0.51702324,0.01427491,0.03177897,-0.00088965,0.69494526,0.00000000,0.00000000,0.00000000,0.61448867,0.00000000,0.00000000,-0.00000000,0.64256796,-3.64787912,-0.01224321,-9.03666687,10291009.21005011,0.00000000,0.00000000,0.00000000,7348085.28795838,0.00000000,0.00000000,-0.00000000,9135388.76920938,0.67923083,0.79168808,2.17604934,0.96307172,0.03674704,0.25080753,-0.09076397
0.01820199,-0.95270532,0.23571502,0.18580453,0.04761994,0.22179156,0.22785377,-0.07275015,0.22785379,0.29374971,-0.22038393,-0.07275012,-0.22038388,0.51714964,0.01217935,0.02807648,-0.00144605,0.69494526,0.00000000,0.00000000,0.00000000,0.61448867,0.00000000,0.00000000,-0.00000000,0.64256796,-3.64310694,-0.01935281,-9.09397697,10291009.21005011,0.00000000,0.00000000,0.00000000,7348085.28795838,0.00000000,0.00000000,-0.00000000,9135388.76920938,0.67916524,0.79182709,2.17609401,0.96308007,0.03666964,0.25081394,-0.09068891
0.02561959,-0.95272350,0.23574796,0.18570727,0.04747264,0.22161571,0.22782312,-0.07281788,0.22782314,0.29371844,-0.22030349,-0.07281791,-0.22030345,0.51734925,0.00366265,0.03219493,0.00015969,0.69494526,0.00000000,0.00000000,0.00000000,0.61448867,0.00000000,0.00000000,-0.00000000,0.64256796,-3.66214275,-0.02671807,-9.13694191,10291009.21005011,0.00000000,0.00000000,0.00000000,7348085.28795838,0.00000000,0.00000000,-0.00000000,9135388.76920938,0.67902023,0.79211853,2.17619333,0.96309850,0.03652043,0.25081758,-0.09054327
0.03056449,-0.95273417,0.23577589,0.18564382,0.04736674,0.22149833,0.22780975,-0.07286654,0.22780975,0.29370836,-0.22024969,-0.07286654,-0.22024969,0.51749235,0.00420420,0.02957017,0.00177815,0.69494526,0.00000000,0.00000000,0.00000000,0.61448867,0.00000000,0.00000000,-0.00000000,0.64256796,-3.67168689,-0.02204522,-9.12738132,10291009.21005011,0.00000000,0.00000000,0.00000000,7348085.28795838,0.00000000,0.00000000,-0.00000000,9135388.76920938,0.67886958,0.79239707,2.17629747,0.96311750,0.03639687,0.25080660,-0.09042119
0.03550964,-0.95274353,0.23581252,0.18557607,0.04726218,0.22139206,0.22780524,-0.07291174,0.22780520,0.29370847,-0.22020062,-0.07291173,-0.22020062,0.51764396,0.00576999,0.03168789,0.00557623,0.69494526,0.00000000,0.00000000,0.00000000,0.61448867,0.00000000,0.00000000,-0.00000000,0.64256796,-3.67407298,-0.01252395,-9.10588360,10291009.21005011,0.00000000,0.00000000,0.00000000,7348085.28795838,0.00000000,0.00000000,-0.00000000,9135388.76920938,0.67871208,0.79266275,2.17640759,0.96313700,0.03629734,0.25078216,-0.09032131
0.04045454,-0.95275170,0.23585631,0.18550310,0.04716497,0.22130223,0.22781065,-0.07294955,0.22781065,0.29371750,-0.22015317,-0.07294954,-0.22015321,0.51780150,0.01106528,0.03384635,0.00668777,0.69494526,0.00000000,0.00000000,0.00000000,0.61448867,0.00000000,0.00000000,-0.00000000,0.64256796,-3.66702056,-0.01243905,-9.09395981,10291009.21005011,0.00000000,0.00000000,0.00000000,7348085.28795838,0.00000000,0.00000000,-0.00000000,9135388.76920938,0.67855437,0.79290381,2.17651933,0.96315590,0.03622327,0.25074756,-0.09024548
0.04539969,-0.95275879,0.23590170,0.18543316,0.04707041,0.22121892,0.22781699,-0.07298659,0.22781698,0.29372388,-0.22010829,-0.07298660,-0.22010831,0.51795838,0.00735208,0.03380772,0.00775968,0.69494526,0.00000000,0.00000000,0.00000000,0.61448867,0.00000000,0.00000000,-0.00000000,0.64256796,-3.65508986,-0.00276728,-9.10589409,10291009.21005011,0.00000000,0.00000000,0.00000000,7348085.28795838,0.00000000,0.00000000,-0.00000000,9135388.76920938,0.67840406,0.79311123,2.17662735,0.96317316,0.03617257,0.25070776,-0.09019220
0.05034459,-0.95276558,0.23595247,0.18535897,0.04697090,0.22113486,0.22782825,-0.07302434,0.22782826,0.29373949,-0.22006445,-0.07302437,-0.22006446,0.51812412,0.00945273,0.03540529,0.01101675,0.69494526,0.00000000,0.00000000,0.00000000,0.61448867,0.00000000,0.00000000,-0.00000000,0.64256796,-3.65270400,-0.00751537,-9.13216400,10291009.21005011,0.00000000,0.00000000,0.00000000,7348085.28795838,0.00000000,0.00000000,-0.00000000,9135388.76920938,0.67823579,0.79331894,2.17675010,0.96319153,0.03613474,0.25065739,-0.09015113
0.06517953,-0.95279121,0.23613971,0.18507104,0.04664364,0.22085973,0.22786509,-0.07313028,0.22786508,0.29377406,-0.21989224,-0.07313027,-0.21989228,0.51869900,0.00673632,0.04010499,0.01967123,0.69494526,0.00000000,0.00000000,0.00000000,0.61448867,0.00000000,0.00000000,-0.00000000,0.64256796,-3.63828182,-0.03601359,-9.15845299,10291009.21005011,0.00000000,0.00000000,0.00000000,7348085.28795838,0.00000000,0.00000000,-0.00000000,9135388.76920938,0.67755896,0.79393651,2.17725918,0.96326118,0.03611075,0.25039936,-0.09013360
0.08001447,-0.95282000,0.23639111,0.18468988,0.04629218,0.22059233,0.22792871,-0.07321227,0.22792871,0.29381177,-0.21966738,-0.07321225,-0.21966738,0.51939539,0.00245476,0.04321179,0.03104107,0.69494526,0.00000000,0.00000000,0.00000000,0.61448867,0.00000000,0.00000000,-0.00000000,0.64256796,-3.63122940,-0.06934088,-9.09881210,10291009.21005011,0.00000000,0.00000000,0.00000000,7348085.28795838,0.00000000,0.00000000,-0.00000000,9135388.76920938,0.67701144,0.79424302,2.17768089,0.96331864,0.03615204,0.25013656,-0.09023261
0.08495963,-0.95283538,0.23647824,0.18451828,0.04621486,0.22053392,0.22795486,-0.07320080,0.22795486,0.29381554,-0.21957090,-0.07320081,-0.21957087,0.51963251,0.00511927,0.04218870,0.02833997,0.69494526,0.00000000,0.00000000,0.00000000,0.61448867,0.00000000,0.00000000,-0.00000000,0.64256796,-3.60498261,-0.08338448,-9.09406662,10291009.21005011,0.00000000,0.00000000,0.00000000,7348085.28795838,0.00000000,0.00000000,-0.00000000,9135388.76920938,0.67699331,0.79425100,2.17769486,0.96332058,0.03615346,0.25012728,-0.09023705
0.08990452,-0.95285279,0.23656304,0.18432985,0.04617260,0.22050516,0.22797138,-0.07316364,0.22797139,0.29378413,-0.21946000,-0.07316362,-0.21946000,0.51986423,0.00245613,0.04268536,0.03266556,0.69494526,0.00000000,0.00000000,0.00000000,0.61448867,0.00000000,0.00000000,-0.00000000,0.64256796,-3.58830667,-0.07604674,-9.07019711,10291009.21005011,0.00000000,0.00000000,0.00000000,7348085.28795838,0.00000000,0.00000000,-0.00000000,9135388.76920938,0.67680672,0.79432648,2.17783846,0.96334066,0.03616701,0.25003024,-0.09028625
0.09484967,-0.95286894,0.23664570,0.18414727,0.04614516,0.22049377,0.22798890,-0.07311936,0.22798894,0.29374884,-0.21935472,-0.07311936,-0.21935472,0.52008628,0.00086946,0.04161674,0.03374081,0.69494526,0.00000000,0.00000000,0.00000000,0.61448867,0.00000000,0.00000000,-0.00000000,0.64256796,-3.58830667,-0.07604674,-9.04632187,10291009.21005011,0.00000000,0.00000000,0.00000000,7348085.28795838,0.00000000,0.00000000,-0.00000000,9135388.76920938,0.67661496,0.79439272,2.17798569,0.96336139,0.03617858,0.24992820,-0.09034292
0.09979457,-0.95288098,0.23673919,0.18396838,0.04613030,0.22051467,0.22802313,-0.07306650,0.22802313,0.29373063,-0.21926347,-0.07306648,-0.21926347,0.52031200,-0.00180536,0.04105899,0.04130419,0.69494526,0.00000000,0.00000000,0.00000000,0.61448867,0.00000000,0.00000000,-0.00000000,0.64256796,-3.58109522,-0.09745561,-9.03679276,10291009.21005011,0.00000000,0.00000000,0.00000000,7348085.28795838,0.00000000,0.00000000,-0.00000000,9135388.76920938,0.67641750,0.79445069,2.17813700,0.96338266,0.03618760,0.24982164,-0.09040711
0.10721217,-0.95289451,0.23687838,0.18372037,0.04612514,0.22057633,0.22808933,-0.07298149,0.22808933,0.29372381,-0.21914804,-0.07298148,-0.21914802,0.52063373,-0.00179556,0.03948140,0.04130024,0.69494526,0.00000000,0.00000000,0.00000000,0.61448867,0.00000000,0.00000000,-0.00000000,0.64256796,-3.56200671,-0.13305373,-9.06548882,10291009.21005011,0.00000000,0.00000000,0.00000000,7348085.28795838,0.00000000,0.00000000,-0.00000000,9135388.76920938,0.67621383,0.79450128,2.17829283,0.96340436,0.03619340,0.24971112,-0.09047894
0.11215707,-0.95290315,0.23697099,0.18355650,0.04612255,0.22061852,0.22813146,-0.07292499,0.22813148,0.29371646,-0.21907570,-0.07292499,-0.21907573,0.52084719,-0.00711874,0.04310782,0.04237913,0.69494526,0.00000000,0.00000000,0.00000000,0.61448867,0.00000000,0.00000000,-0.00000000,0.64256796,-3.55248857,-0.14249733,-9.06311703,10291009.21005011,0.00000000,0.00000000,0.00000000,7348085.28795838,0.00000000,0.00000000,-0.00000000,9135388.76920938,0.67602567,0.79454103,2.17843665,0.96342402,0.03619528,0.24960923,-0.09054991
0.11710222,-0.95291227,0.23706165,0.18339117,0.04612707,0.22066625,0.22817537,-0.07286347,0.22817535,0.29371106,-0.21900103,-0.07286351,-0.21900107,0.52105647,-0.00287060,0.04209986,0.04184726,0.69494526,0.00000000,0.00000000,0.00000000,0.61448867,0.00000000,0.00000000,-0.00000000,0.64256796,-3.54771662,-0.14006059,-9.02491760,10291009.21005011,0.00000000,0.00000000,0.00000000,7348085.28795838,0.00000000,0.00000000,-0.00000000,9135388.76920938,0.67582859,0.79457662,2.17858721,0.96344411,0.03619368,0.24950341,-0.09062844
0.13193716,-0.95292640,0.23731878,0.18297118,0.04618002,0.22087819,0.22832899,-0.07267958,0.22832896,0.29372796,-0.21884242,-0.07267957,-0.21884241,0.52161849,-0.00757920,0.03416505,0.03856912,0.69494526,0.00000000,0.00000000,0.00000000,0.61448867,0.00000000,0.00000000,-0.00000000,0.64256796,-3.52149606,-0.17796762,-8.99871063,10291009.21005011,0.00000000,0.00000000,0.00000000,7348085.28795838,0.00000000,0.00000000,-0.00000000,9135388.76920938,0.67505713,0.79467532,2.17917765,0.96351571,0.03615439,0.24910906,-0.09096711
0.14677211,-0.95294344,0.23754673,0.18257348,0.04623066,0.22105849,0.22845739,-0.07250798,0.22845737,0.29372914,-0.21869147,-0.07250798,-0.21869143,0.52214194,-0.01074844,0.03466066,0.03477539,0.69494526,0.00000000,0.00000000,0.00000000,0.61448867,0.00000000,0.00000000,-0.00000000,0.64256796,-3.51197815,-0.19695759,-9.03932476,10291009.21005011,0.00000000,0.00000000,0.00000000,7348085.28795838,0.00000000,0.00000000,-0.00000000,9135388.76920938,0.67444599,0.79473194,2.17964358,0.96356341,0.03608141,0.24882636,-0.09126409
0.15171700,-0.95295060,0.23761205,0.18244641,0.04624902,0.22110890,0.22849152,-0.07245302,0.22849150,0.29372183,-0.21863865,-0.07245303,-0.21863867,0.52230315,-0.00861445,0.03257977,0.03152226,0.69494526,0.00000000,0.00000000,0.00000000,0.61448867,0.00000000,0.00000000,-0.00000000,0.64256796,-3.49996877,-0.19683944,-9.03932476,10291009.21005011,0.00000000,0.00000000,0.00000000,7348085.28795838,0.00000000,0.00000000,-0.00000000,9135388.76920938,0.67444460,0.79473206,2.17964463,0.96356351,0.03608120,0.24882575,-0.09126479
0.15666215,-0.95296216,0.23766683,0.18231045,0.04626578,0.22113763,0.22850721,-0.07239876,0.22850719,0.29369115,-0.21857336,-0.07239876,-0.21857337,0.52245830,-0.00968767,0.03572525,0.02936243,0.69494526,0.00000000,0.00000000,0.00000000,0.61448867,0.00000000,0.00000000,-0.00000000,0.64256796,-3.49042439,-0.19673909,-9.05365562,10291009.21005011,0.00000000,0.00000000,0.00000000,7348085.28795838,0.00000000,0.00000000,-0.00000000,9135388.76920938,0.67424325,0.79475044,2.17979623,0.96357791,0.03604759,0.24873712,-0.09136753
0.16160705,-0.95297563,0.23771927,0.18216850,0.04627673,0.22115273,0.22851566,-0.07234652,0.22851567,0.29365181,-0.21849947,-0.07234653,-0.21849949,0.52261691,-0.01129863,0.03939057,0.02774138,0.69494526,0.00000000,0.00000000,0.00000000,0.61448867,0.00000000,0.00000000,-0.00000000,0.64256796,-3.49278378,-0.19915318,-9.07036686,10291009.21005011,0.00000000,0.00000000,0.00000000,7348085.28795838,0.00000000,0.00000000,-0.00000000,9135388.76920938,0.67404627,0.79476914,2.17994341,0.96359198,0.03601137,0.24865079,-0.09146835
0.16655220,-0.95298946,0.23776907,0.18202759,0.04629218,0.22117025,0.22852343,-0.07229205,0.22852341,0.29361042,-0.21842271,-0.07229205,-0.21842271,0.52277146,-0.00862752,0.03678930,0.02611870,0.69494526,0.00000000,0.00000000,0.00000000,0.61448867,0.00000000,0.00000000,-0.00000000,0.64256796,-3.48562574,-0.19669136,-9.07991886,10291009.21005011,0.00000000,0.00000000,0.00000000,7348085.28795838,0.00000000,0.00000000,-0.00000000,9135388.76920938,0.67385457,0.79478842,2.18008551,0.96360613,0.03597408,0.24856575,-0.09156510
0.17149710,-0.95300680,0.23780425,0.18188624,0.04630956,0.22116987,0.22851399,-0.07223890,0.22851399,0.29354764,-0.21833702,-0.07223894,-0.21833707,0.52291051,-0.01019233,0.03677739,0.01853981,0.69494526,0.00000000,0.00000000,0.00000000,0.61448867,0.00000000,0.00000000,-0.00000000,0.64256796,-3.46417761,-0.19646318,-9.07516003,10291009.21005011,0.00000000,0.00000000,0.00000000,7348085.28795838,0.00000000,0.00000000,-0.00000000,9135388.76920938,0.67367082,0.79480832,2.18022059,0.96362055,0.03593752,0.24848200,-0.09165495
0.17644199,-0.95302641,0.23783100,0.18174441,0.04632564,0.22115581,0.22849304,-0.07218815,0.22849304,0.29347270,-0.21824583,-0.07218818,-0.21824587,0.52304197,-0.01018436,0.03677885,0.01583386,0.69494526,0.00000000,0.00000000,0.00000000,0.61448867,0.00000000,0.00000000,-0.00000000,0.64256796,-3.45224690,-0.19633776,-9.07516766,10291009.21005011,0.00000000,0.00000000,0.00000000,7348085.28795838,0.00000000,0.00000000,-0.00000000,9135388.76920938,0.67348114,0.79483061,2.18035902,0.96363660,0.03590009,0.24839253,-0.09174329
0.18138715,-0.95304835,0.23785174,0.18159665,0.04634687,0.22113686,0.22846454,-0.07213365,0.22846454,0.29338654,-0.21814648,-0.07213365,-0.21814646,0.52316750,-0.00699728,0.03628674,0.01258992,0.69494526,0.00000000,0.00000000,0.00000000,0.61448867,0.00000000,0.00000000,-0.00000000,0.64256796,-3.44026351,-0.19621721,-9.09426975,10291009.21005011,0.00000000,0.00000000,0.00000000,7348085.28795838,0.00000000,0.00000000,-0.00000000,9135388.76920938,0.67329294,0.79485464,2.18049576,0.96365373,0.03586448,0.24830093,-0.09182529
0.18633204,-0.95307511,0.23786063,0.18143886,0.04636873,0.22109697,0.22841765,-0.07207811,0.22841768,0.29327606,-0.21803223,-0.07207813,-0.21803227,0.52328521,-0.00647427,0.04050259,0.00610770,0.69494526,0.00000000,0.00000000,0.00000000,0.61448867,0.00000000,0.00000000,-0.00000000,0.64256796,-3.43310523,-0.19852853,-9.09427643,10291009.21005011,0.00000000,0.00000000,0.00000000,7348085.28795838,0.00000000,0.00000000,-0.00000000,9135388.76920938,0.67311909,0.79487870,2.18062192,0.96367062,0.03583416,0.24821402,-0.09189481
0.19869454,-0.95315522,0.23783934,0.18103237,0.04642140,0.22092731,0.22823745,-0.07194477,0.22823746,0.29291864,-0.21769899,-0.07194480,-0.21769898,0.52354560,-0.01014361,0.03941841,-0.00255772,0.69494526,0.00000000,0.00000000,0.00000000,0.61448867,0.00000000,0.00000000,-0.00000000,0.64256796,-3.39500713,-0.18380043,-9.08712959,10291009.21005011,0.00000000,0.00000000,0.00000000,7348085.28795838,0.00000000,0.00000000,-0.00000000,9135388.76920938,0.67261520,0.79496007,2.18098995,0.96372527,0.03576909,0.24795251,-0.09205282
0.21352948,-0.95326364,0.23776703,0.18054244,0.04647273,0.22064391,0.22796310,-0.07179962,0.22796312,0.29242961,-0.21726283,-0.07179961,-0.21726278,0.52381756,-0.00533457,0.03631594,-0.01013105,0.69494526,0.00000000,0.00000000,0.00000000,0.61448867,0.00000000,0.00000000,-0.00000000,0.64256796,-3.39498115,-0.14323089,-9.05127621,10291009.21005011,0.00000000,0.00000000,0.00000000,7348085.28795838,0.00000000,0.00000000,-0.00000000,9135388.76920938,0.67215443,0.79505145,2.18133107,0.96377991,0.03573724,0.24771219,-0.09214015
0.21847463,-0.95329934,0.23774503,0.18037838,0.04649036,0.22055212,0.22787109,-0.07175089,0.22787109,0.29226473,-0.21711903,-0.07175091,-0.21711901,0.52390930,-0.00694051,0.03629671,-0.00472365,0.69494526,0.00000000,0.00000000,0.00000000,0.61448867,0.00000000,0.00000000,-0.00000000,0.64256796,-3.37112021,-0.12866053,-9.07515240,10291009.21005011,0.00000000,0.00000000,0.00000000,7348085.28795838,0.00000000,0.00000000,-0.00000000,9135388.76920938,0.67215148,0.79505209,2.18133327,0.96378026,0.03573710,0.24771069,-0.09214054
0.22341953,-0.95333600,0.23772058,0.18021287,0.04650478,0.22045276,0.22777772,-0.07170378,0.22777770,0.29210038,-0.21697259,-0.07170378,-0.21697261,0.52400055,-0.00694061,0.03945458,-0.00741275,0.69494526,0.00000000,0.00000000,0.00000000,0.61448867,0.00000000,0.00000000,-0.00000000,0.64256796,-3.36884022,-0.11430629,-9.10141087,10291009.21005011,0.00000000,0.00000000,0.00000000,7348085.28795838,0.00000000,0.00000000,-0.00000000,9135388.76920938,0.67200190,0.79508571,2.18144494,0.96379806,0.03573107,0.24763590,-0.09215777
0.22836468,-0.95336682,0.23771316,0.18005714,0.04651440,0.22037574,0.22770529,-0.07165927,0.22770529,0.29196202,-0.21683940,-0.07165926,-0.21683940,0.52410760,-0.00638722,0.03209382,0.00014692,0.69494526,0.00000000,0.00000000,0.00000000,0.61448867,0.00000000,0.00000000,-0.00000000,0.64256796,-3.38315654,-0.10491043,-9.10139275,10291009.21005011,0.00000000,0.00000000,0.00000000,7348085.28795838,0.00000000,0.00000000,-0.00000000,9135388.76920938,0.67186813,0.79511759,2.18154479,0.96381372,0.03572752,0.24757145,-0.09216850
0.23330958,-0.95339632,0.23770955,0.17990460,0.04651888,0.22029931,0.22763790,-0.07161818,0.22763786,0.29183212,-0.21671308,-0.07161818,-0.21671312,0.52421855,-0.01064315,0.03152206,0.00174604,0.69494526,0.00000000,0.00000000,0.00000000,0.61448867,0.00000000,0.00000000,-0.00000000,0.64256796,-3.37825203,-0.09293940,-9.10137367,10291009.21005011,0.00000000,0.00000000,0.00000000,7348085.28795838,0.00000000,0.00000000,-0.00000000,9135388.76920938,0.67173613,0.79515087,2.18164286,0.96382877,0.03572594,0.24751081,-0.09217459
0.23825447,-0.95342481,0.23771061,0.17975529,0.04650639,0.22020926,0.22757161,-0.07158730,0.22757160,0.29170995,-0.21658872,-0.07158729,-0.21658871,0.52434059,-0.01489743,0.03094951,0.00768584,0.69494526,0.00000000,0.00000000,0.00000000,0.61448867,0.00000000,0.00000000,-0.00000000,0.64256796,-3.36393571,-0.07130963,-9.12046051,10291009.21005011,0.00000000,0.00000000,0.00000000,7348085.28795838,0.00000000,0.00000000,-0.00000000,9135388.76920938,0.67161533,0.79518305,2.18173190,0.96384207,0.03572630,0.24745841,-0.09217614
0.24319963,-0.95345014,0.23772807,0.17960422,0.04648171,0.22012599,0.22752298,-0.07156006,0.22752294,0.29161343,-0.21647228,-0.07156006,-0.21647226,0.52448452,-0.01492810,0.03357620,0.01256314,0.69494526,0.00000000,0.00000000,0.00000000,0.61448867,0.00000000,0.00000000,-0.00000000,0.64256796,-3.35677743,-0.04736852,-9.13715553,10291009.21005011,0.00000000,0.00000000,0.00000000,7348085.28795838,0.00000000,0.00000000,-0.00000000,9135388.76920938,0.67147921,0.79522154,2.18183126,0.96385644,0.03572862,0.24740312,-0.09217332
0.24814452,-0.95347118,0.23775470,0.17946590,0.04644739,0.22004962,0.22748583,-0.07154050,0.22748583,0.29153225,-0.21636456,-0.07154052,-0.21636459,0.52463780,-0.01967161,0.02668813,0.01794442,0.69494526,0.00000000,0.00000000,0.00000000,0.61448867,0.00000000,0.00000000,-0.00000000,0.64256796,-3.35916352,-0.04262043,-9.12759876,10291009.21005011,0.00000000,0.00000000,0.00000000,7348085.28795838,0.00000000,0.00000000,-0.00000000,9135388.76920938,0.67137416,0.79525308,2.18190716,0.96386708,0.03573161,0.24736323,-0.09216796
0.25308967,-0.95348954,0.23779742,0.17932254,0.04640599,0.21998400,0.22746609,-0.07152104,0.22746609,0.29147709,-0.21626778,-0.07152103,-0.21626778,0.52481029,-0.01972005,0.03089095,0.02553161,0.69494526,0.00000000,0.00000000,0.00000000,0.61448867,0.00000000,0.00000000,-0.00000000,0.64256796,-3.35439134,-0.04734344,-9.10373211,10291009.21005011,0.00000000,0.00000000,0.00000000,7348085.28795838,0.00000000,0.00000000,-0.00000000,9135388.76920938,0.67120937,0.79530620,2.18202472,0.96388294,0.03573787,0.24730561,-0.09215432
0.26792462,-0.95352018,0.23799150,0.17895520,0.04619938,0.21980742,0.22748909,-0.07151679,0.22748907,0.29143854,-0.21603825,-0.07151681,-0.21603823,0.52540799,-0.03239286,0.01971301,0.03467271,0.69494526,0.00000000,0.00000000,0.00000000,0.61448867,0.00000000,0.00000000,-0.00000000,0.64256796,-3.35921597,-0.04500217,-8.99151802,10291009.21005011,0.00000000,0.00000000,0.00000000,7348085.28795838,0.00000000,0.00000000,-0.00000000,9135388.76920938,0.67090069,0.79542000,2.18223923,0.96390986,0.03575115,0.24721342,-0.09211499
0.28523201,-0.95353031,0.23829366,0.17856868,0.04592732,0.21968984,0.22762412,-0.07152926,0.22762412,0.29155224,-0.21585770,-0.07152927,-0.21585773,0.52617050,-0.02923683,0.01816162,0.04712729,0.69494526,0.00000000,0.00000000,0.00000000,0.61448867,0.00000000,0.00000000,-0.00000000,0.64256796,-3.34969854,-0.01387380,-9.07744789,10291009.21005011,0.00000000,0.00000000,0.00000000,7348085.28795838,0.00000000,0.00000000,-0.00000000,9135388.76920938,0.67061268,0.79554643,2.18243163,0.96393183,0.03575722,0.24714322,-0.09207099
0.29017716,-0.95353264,0.23838717,0.17845410,0.04583866,0.21965009,0.22766652,-0.07153701,0.22766652,0.29159033,-0.21580485,-0.07153700,-0.21580480,0.52640193,-0.03190165,0.02129050,0.04550416,0.69494526,0.00000000,0.00000000,0.00000000,0.61448867,0.00000000,0.00000000,-0.00000000,0.64256796,-3.34254026,-0.01141197,-9.10609913,10291009.21005011,0.00000000,0.00000000,0.00000000,7348085.28795838,0.00000000,0.00000000,-0.00000000,9135388.76920938,0.67055052,0.79557661,2.18247210,0.96393623,0.03575659,0.24712952,-0.09206196
0.30501211,-0.95353866,0.23866279,0.17812163,0.04557197,0.21952936,0.22779649,-0.07156438,0.22779651,0.29171452,-0.21564560,-0.07156437,-0.21564564,0.52708770,-0.02284812,0.01612603,0.04281268,0.69494526,0.00000000,0.00000000,0.00000000,0.61448867,0.00000000,0.00000000,-0.00000000,0.64256796,-3.29007268,-0.02279067,-9.01064491,10291009.21005011,0.00000000,0.00000000,0.00000000,7348085.28795838,0.00000000,0.00000000,-0.00000000,9135388.76920938,0.67024648,0.79573976,2.18266465,0.96395651,0.03573678,0.24706549,-0.09202921
0.30995700,-0.95354128,0.23874843,0.17801498,0.04548393,0.21948386,0.22783277,-0.07157568,0.22783277,0.29174610,-0.21559182,-0.07157567,-0.21559178,0.52730750,-0.02814274,0.01607310,0.03900494,0.69494526,0.00000000,0.00000000,0.00000000,0.61448867,0.00000000,0.00000000,-0.00000000,0.64256796,-3.29479194,-0.01568591,-9.05360508,10291009.21005011,0.00000000,0.00000000,0.00000000,7348085.28795838,0.00000000,0.00000000,-0.00000000,9135388.76920938,0.67018660,0.79577491,2.18270157,0.96396034,0.03572878,0.24705280,-0.09202622
0.31490215,-0.95354706,0.23882173,0.17790759,0.04539801,0.21942358,0.22785642,-0.07158755,0.22785642,0.29176546,-0.21553061,-0.07158755,-0.21553061,0.52751397,-0.02706999,0.01608631,0.03467842,0.69494526,0.00000000,0.00000000,0.00000000,0.61448867,0.00000000,0.00000000,-0.00000000,0.64256796,-3.30672240,-0.00865157,-9.09179115,10291009.21005011,0.00000000,0.00000000,0.00000000,7348085.28795838,0.00000000,0.00000000,-0.00000000,9135388.76920938,0.67009523,0.79583036,2.18275730,0.96396616,0.03571348,0.24703291,-0.09202464
0.31984705,-0.95355397,0.23888960,0.17780143,0.04531292,0.21935735,0.22787410,-0.07160025,0.22787410,0.29177834,-0.21546670,-0.07160024,-0.21546666,0.52771424,-0.02547253,0.01505172,0.03142644,0.69494526,0.00000000,0.00000000,0.00000000,0.61448867,0.00000000,0.00000000,-0.00000000,0.64256796,-3.31380129,-0.01112064,-9.07984543,10291009.21005011,0.00000000,0.00000000,0.00000000,7348085.28795838,0.00000000,0.00000000,-0.00000000,9135388.76920938,0.66999335,0.79589468,2.18281868,0.96397264,0.03569167,0.24700962,-0.09202768
0.33468199,-0.95358360,0.23905696,0.17746487,0.04512575,0.21918560,0.22789590,-0.07159965,0.22789592,0.29175566,-0.21525294,-0.07159965,-0.21525295,0.52825293,-0.01747332,0.01250951,0.02224652,0.69494526,0.00000000,0.00000000,0.00000000,0.61448867,0.00000000,0.00000000,-0.00000000,0.64256796,-3.34248734,-0.00664363,-9.02013969,10291009.21005011,0.00000000,0.00000000,0.00000000,7348085.28795838,0.00000000,0.00000000,-0.00000000,9135388.76920938,0.66965031,0.79612779,2.18302055,0.96399528,0.03557850,0.24691746,-0.09208170
0.34951719,-0.95362616,0.23916982,0.17712668,0.04495636,0.21895975,0.22785486,-0.07159822,0.22785486,0.29165661,-0.21500888,-0.07159821,-0.21500888,0.52872758,-0.01109798,0.01468317,0.01361295,0.69494526,0.00000000,0.00000000,0.00000000,0.61448867,0.00000000,0.00000000,-0.00000000,0.64256796,-3.31388068,0.01752565,-9.05594921,10291009.21005011,0.00000000,0.00000000,0.00000000,7348085.28795838,0.00000000,0.00000000,-0.00000000,9135388.76920938,0.66934759,0.79634911,2.18319479,0.96401735,0.03542697,0.24681229,-0.09219100
0.35446209,-0.95364136,0.23920010,0.17701538,0.04491026,0.21888817,0.22783465,-0.07159349,0.22783460,0.29161142,-0.21492420,-0.07159348,-0.21492424,0.52887272,-0.01054520,0.01153401,0.01252416,0.69494526,0.00000000,0.00000000,0.00000000,0.61448867,0.00000000,0.00000000,-0.00000000,0.64256796,-3.32342482,0.01742531,-9.03923035,10291009.21005011,0.00000000,0.00000000,0.00000000,7348085.28795838,0.00000000,0.00000000,-0.00000000,9135388.76920938,0.66931560,0.79637308,2.18321309,0.96401983,0.03540828,0.24679971,-0.09220593
0.37176948,-0.95369869,0.23929287,0.17662042,0.04475338,0.21862186,0.22774738,-0.07157625,0.22774740,0.29143577,-0.21462210,-0.07157630,-0.21462215,0.52936337,-0.00683580,0.01367757,0.00929500,0.69494526,0.00000000,0.00000000,0.00000000,0.61448867,0.00000000,0.00000000,-0.00000000,0.64256796,-3.32822347,0.06510928,-9.12274742,10291009.21005011,0.00000000,0.00000000,0.00000000,7348085.28795838,0.00000000,0.00000000,-0.00000000,9135388.76920938,0.66890438,0.79668692,2.18344785,0.96405445,0.03512777,0.24661277,-0.09245109
0.37671463,-0.95371276,0.23932905,0.17651047,0.04469508,0.21854330,0.22772932,-0.07157880,0.22772929,0.29139612,-0.21453802,-0.07157882,-0.21453807,0.52951838,-0.00841897,0.01050374,0.01361211,0.69494526,0.00000000,0.00000000,0.00000000,0.61448867,0.00000000,0.00000000,-0.00000000,0.64256796,-3.33538151,0.06980722,-9.16571426,10291009.21005011,0.00000000,0.00000000,0.00000000,7348085.28795838,0.00000000,0.00000000,-0.00000000,9135388.76920938,0.66884023,0.79673646,2.18348451,0.96406030,0.03507797,0.24657954,-0.09249755
0.38165953,-0.95372707,0.23936370,0.17640550,0.04461899,0.21844282,0.22770647,-0.07159385,0.22770645,0.29135851,-0.21445499,-0.07159380,-0.21445494,0.52967730,-0.01373652,0.01255225,0.01414139,0.69494526,0.00000000,0.00000000,0.00000000,0.61448867,0.00000000,0.00000000,-0.00000000,0.64256796,-3.34251356,0.06256980,-9.14900017,10291009.21005011,0.00000000,0.00000000,0.00000000,7348085.28795838,0.00000000,0.00000000,-0.00000000,9135388.76920938,0.66873789,0.79681562,2.18354306,0.96406989,0.03499559,0.24652441,-0.09257577
0.38660468,-0.95373964,0.23940310,0.17630470,0.04453710,0.21834408,0.22769123,-0.07161252,0.22769120,0.29133416,-0.21437605,-0.07161250,-0.21437603,0.52984187,-0.01320318,0.01150537,0.01522263,0.69494526,0.00000000,0.00000000,0.00000000,0.61448867,0.00000000,0.00000000,-0.00000000,0.64256796,-3.33535528,0.06741823,-9.09886360,10291009.21005011,0.00000000,0.00000000,0.00000000,7348085.28795838,0.00000000,0.00000000,-0.00000000,9135388.76920938,0.66827309,0.79717515,2.18381073,0.96411689,0.03458250,0.24624395,-0.09298699
0.40143963,-0.95376146,0.23956728,0.17602691,0.04428444,0.21811611,0.22770920,-0.07167296,0.22770922,0.29134355,-0.21418864,-0.07167300,-0.21418869,0.53037186,-0.00948951,0.00627924,0.02604590,0.69494526,0.00000000,0.00000000,0.00000000,0.61448867,0.00000000,0.00000000,-0.00000000,0.64256796,-3.34969854,0.09113599,-9.07018471,10291009.21005011,0.00000000,0.00000000,0.00000000,7348085.28795838,0.00000000,0.00000000,-0.00000000,9135388.76920938,0.66807744,0.79732580,2.18392437,0.96413732,0.03439723,0.24611728,-0.09317906
0.41627457,-0.95375913,0.23979935,0.17579846,0.04398429,0.21794891,0.22781940,-0.07176584,0.22781942,0.29149004,-0.21408097,-0.07176585,-0.21408097,0.53096633,-0.00952496,0.00890505,0.03254676,0.69494526,0.00000000,0.00000000,0.00000000,0.61448867,0.00000000,0.00000000,-0.00000000,0.64256796,-3.34015393,0.08884975,-9.08690548,10291009.21005011,0.00000000,0.00000000,0.00000000,7348085.28795838,0.00000000,0.00000000,-0.00000000,9135388.76920938,0.66760609,0.79768848,2.18420101,0.96417894,0.03397468,0.24583859,-0.09363801
0.42121972,-0.95375615,0.23988450,0.17572491,0.04387914,0.21789883,0.22786539,-0.07179924,0.22786537,0.29155095,-0.21404934,-0.07179926,-0.21404934,0.53117395,-0.01058252,0.00731568,0.03307653,0.69494526,0.00000000,0.00000000,0.00000000,0.61448867,0.00000000,0.00000000,-0.00000000,0.64256796,-3.32817078,0.09374350,-9.07735252,10291009.21005011,0.00000000,0.00000000,0.00000000,7348085.28795838,0.00000000,0.00000000,-0.00000000,9135388.76920938,0.66758576,0.79770416,2.18421306,0.96418035,0.03395783,0.24582806,-0.09365725
0.43605467,-0.95372528,0.24019241,0.17555150,0.04355875,0.21784105,0.22808682,-0.07190824,0.22808684,0.29184677,-0.21403187,-0.07190824,-0.21403187,0.53182916,-0.01215787,0.00098407,0.04334326,0.69494526,0.00000000,0.00000000,0.00000000,0.61448867,0.00000000,0.00000000,-0.00000000,0.64256796,-3.32822347,0.06749588,-9.06305790,10291009.21005011,0.00000000,0.00000000,0.00000000,7348085.28795838,0.00000000,0.00000000,-0.00000000,9135388.76920938,0.66706674,0.79810576,2.18452196,0.96420187,0.03357706,0.24561140,-0.09414017
0.44099956,-0.95370984,0.24031363,0.17549606,0.04345257,0.21784948,0.22818507,-0.07194182,0.22818509,0.29197498,-0.21404125,-0.07194179,-0.21404120,0.53206507,-0.01162787,-0.00111656,0.04875361,0.69494526,0.00000000,0.00000000,0.00000000,0.61448867,0.00000000,0.00000000,-0.00000000,0.64256796,-3.31870580,0.05327912,-9.07740498,10291009.21005011,0.00000000,0.00000000,0.00000000,7348085.28795838,0.00000000,0.00000000,-0.00000000,9135388.76920938,0.66706145,0.79810987,2.18452509,0.96420194,0.03357366,0.24560967,-0.09414520
0.44594471,-0.95369858,0.24042246,0.17543551,0.04334132,0.21783203,0.22826629,-0.07197877,0.22826629,0.29208427,-0.21403765,-0.07197877,-0.21403768,0.53229322,-0.01215491,0.00045793,0.04442656,0.69494526,0.00000000,0.00000000,0.00000000,0.61448867,0.00000000,0.00000000,-0.00000000,0.64256796,-3.32586384,0.03411117,-9.07741928,10291009.21005011,0.00000000,0.00000000,0.00000000,7348085.28795838,0.00000000,0.00000000,-0.00000000,9135388.76920938,0.66694590,0.79819969,2.18459295,0.96420254,0.03350165,0.24557418,-0.09425722
0.45088961,-0.95368588,0.24053623,0.17537400,0.04323805,0.21783040,0.22835408,-0.07200998,0.22835407,0.29219842,-0.21403876,-0.07200996,-0.21403872,0.53252310,-0.01270487,0.00150242,0.04604456,0.69494526,0.00000000,0.00000000,0.00000000,0.61448867,0.00000000,0.00000000,-0.00000000,0.64256796,-3.33532882,0.00775113,-9.05833054,10291009.21005011,0.00000000,0.00000000,0.00000000,7348085.28795838,0.00000000,0.00000000,-0.00000000,9135388.76920938,0.66683517,0.79828613,2.18465708,0.96420152,0.03343663,0.24554406,-0.09436920
0.46572455,-0.95365578,0.24083607,0.17519182,0.04297014,0.21782396,0.22858502,-0.07208568,0.22858499,0.29249077,-0.21402359,-0.07208566,-0.21402361,0.53315217,-0.00946072,-0.00319159,0.03522013,0.69494526,0.00000000,0.00000000,0.00000000,0.61448867,0.00000000,0.00000000,-0.00000000,0.64256796,-3.32342482,-0.05178570,-9.06078529,10291009.21005011,0.00000000,0.00000000,0.00000000,7348085.28795838,0.00000000,0.00000000,-0.00000000,9135388.76920938,0.66649555,0.79855786,2.18484307,0.96418731,0.03325540,0.24547224,-0.09476437
0.48797710,-0.95367306,0.24106532,0.17483346,0.04276087,0.21770552,0.22868730,-0.07209348,0.22868730,0.29257378,-0.21383663,-0.07209347,-0.21383658,0.53382381,-0.00352794,-0.00364009,0.00439420,0.69494526,0.00000000,0.00000000,0.00000000,0.61448867,0.00000000,0.00000000,-0.00000000,0.64256796,-3.29725766,-0.11594038,-9.00356960,10291009.21005011,0.00000000,0.00000000,0.00000000,7348085.28795838,0.00000000,0.00000000,-0.00000000,9135388.76920938,0.66628889,0.79874289,2.18494212,0.96416560,0.03315094,0.24545312,-0.09507094
0.49292199,-0.95368642,0.24106573,0.17476015,0.04275912,0.21766968,0.22866466,-0.07207823,0.22866464,0.29252845,-0.21377826,-0.07207822,-0.21377828,0.53389979,0.00128529,-0.00937368,-0.00102544,0.69494526,0.00000000,0.00000000,0.00000000,0.61448867,0.00000000,0.00000000,-0.00000000,0.64256796,-3.29479194,-0.11353596,-8.99162292,10291009.21005011,0.00000000,0.00000000,0.00000000,7348085.28795838,0.00000000,0.00000000,-0.00000000,9135388.76920938,0.66625714,0.79877574,2.18495560,0.96416044,0.03313478,0.24545475,-0.09512465
0.50775719,-0.95374191,0.24098480,0.17454292,0.04286598,0.21759181,0.22852871,-0.07198085,0.22852869,0.29228243,-0.21359531,-0.07198082,-0.21359529,0.53398913,0.00557690,-0.00879494,-0.01669993,0.69494526,0.00000000,0.00000000,0.00000000,0.61448867,0.00000000,0.00000000,-0.00000000,0.64256796,-3.34259343,-0.11403038,-9.04412746,10291009.21005011,0.00000000,0.00000000,0.00000000,7348085.28795838,0.00000000,0.00000000,-0.00000000,9135388.76920938,0.66615496,0.79890755,2.18499040,0.96413657,0.03308862,0.24548421,-0.09530641
0.51270209,-0.95376676,0.24092947,0.17447063,0.04291774,0.21754700,0.22845256,-0.07194330,0.22845256,0.29215935,-0.21352054,-0.07194330,-0.21352057,0.53398349,0.00399700,-0.00828249,-0.02320182,0.69494526,0.00000000,0.00000000,0.00000000,0.61448867,0.00000000,0.00000000,-0.00000000,0.64256796,-3.36162901,-0.10946268,-9.08946991,10291009.21005011,0.00000000,0.00000000,0.00000000,7348085.28795838,0.00000000,0.00000000,-0.00000000,9135388.76920938,0.66613969,0.79893541,2.18499292,0.96413125,0.03308456,0.24549547,-0.09533263
0.51764699,-0.95379257,0.24087176,0.17439516,0.04297464,0.21750369,0.22837324,-0.07190227,0.22837327,0.29203142,-0.21344407,-0.07190227,-0.21344407,0.53397438,0.00558692,-0.00773974,-0.02427839,0.69494526,0.00000000,0.00000000,0.00000000,0.61448867,0.00000000,0.00000000,-0.00000000,0.64256796,-3.36401510,-0.09516825,-9.11094093,10291009.21005011,0.00000000,0.00000000,0.00000000,7348085.28795838,0.00000000,0.00000000,-0.00000000,9135388.76920938,0.66612240,0.79897448,2.18499314,0.96412402,0.03308312,0.24551356,-0.09535967
0.52259214,-0.95381963,0.24080788,0.17431876,0.04304221,0.21746497,0.22829000,-0.07185539,0.22829000,0.29189609,-0.21336529,-0.07185539,-0.21336532,0.53395437,0.01037242,-0.00874135,-0.02534549,0.69494526,0.00000000,0.00000000,0.00000000,0.61448867,0.00000000,0.00000000,-0.00000000,0.64256796,-3.36884022,-0.07850748,-9.09421539,10291009.21005011,0.00000000,0.00000000,0.00000000,7348085.28795838,0.00000000,0.00000000,-0.00000000,9135388.76920938,0.66609977,0.79906624,2.18497830,0.96410990,0.03310055,0.24556127,-0.09537361
0.53742708,-0.95390254,0.24059068,0.17410710,0.04327492,0.21736155,0.22802163,-0.07170736,0.22802163,0.29145929,-0.21313814,-0.07170736,-0.21313813,0.53384687,0.00878570,-0.00980888,-0.02915210,0.69494526,0.00000000,0.00000000,0.00000000,0.61448867,0.00000000,0.00000000,-0.00000000,0.64256796,-3.39495468,-0.07163571,-9.12999153,10291009.21005011,0.00000000,0.00000000,0.00000000,7348085.28795838,0.00000000,0.00000000,-0.00000000,9135388.76920938,0.66609645,0.79914006,2.18495285,0.96410318,0.03313372,0.24559770,-0.09533614
0.55226203,-0.95398903,0.24037306,0.17388375,0.04347554,0.21721000,0.22773549,-0.07157533,0.22773547,0.29101009,-0.21289417,-0.07157533,-0.21289419,0.53376019,0.00665012,-0.00772828,-0.02535778,0.69494526,0.00000000,0.00000000,0.00000000,0.61448867,0.00000000,0.00000000,-0.00000000,0.64256796,-3.40457845,-0.05502268,-9.13952732,10291009.21005011,0.00000000,0.00000000,0.00000000,7348085.28795838,0.00000000,0.00000000,-0.00000000,9135388.76920938,0.66611437,0.79927009,2.18488989,0.96410076,0.03321394,0.24564972,-0.09519865
0.55720718,-0.95401686,0.24030124,0.17381410,0.04354096,0.21716142,0.22764269,-0.07153330,0.22764271,0.29086329,-0.21281452,-0.07153332,-0.21281453,0.53373141,0.00402895,-0.01090916,-0.02753569,0.69494526,0.00000000,0.00000000,0.00000000,0.61448867,0.00000000,0.00000000,-0.00000000,0.64256796,-3.42846560,-0.04572474,-9.10846996,10291009.21005011,0.00000000,0.00000000,0.00000000,7348085.28795838,0.00000000,0.00000000,-0.00000000,9135388.76920938,0.66611591,0.79927660,2.18488636,0.96410083,0.03321817,0.24565207,-0.09519037
0.57451457,-0.95409071,0.24012977,0.17360304,0.04371004,0.21704319,0.22740802,-0.07141965,0.22740802,0.29048505,-0.21261175,-0.07141964,-0.21261177,0.53372261,-0.00662255,-0.00997459,-0.01132506,0.69494526,0.00000000,0.00000000,0.00000000,0.61448867,0.00000000,0.00000000,-0.00000000,0.64256796,-3.43326426,-0.04338591,-9.19202900,10291009.21005011,0.00000000,0.00000000,0.00000000,7348085.28795838,0.00000000,0.00000000,-0.00000000,9135388.76920938,0.66617373,0.79945076,2.18478610,0.96410322,0.03332031,0.24571802,-0.09495990
0.57945972,-0.95410818,0.24010356,0.17353690,0.04373594,0.21700909,0.22736054,-0.07139470,0.22736056,0.29040720,-0.21255837,-0.07139470,-0.21255839,0.53375600,-0.00400473,-0.00784747,-0.00481805,0.69494526,0.00000000,0.00000000,0.00000000,0.61448867,0.00000000,0.00000000,-0.00000000,0.64256796,-3.43326426,-0.05054567,-9.17054844,10291009.21005011,0.00000000,0.00000000,0.00000000,7348085.28795838,0.00000000,0.00000000,-0.00000000,9135388.76920938,0.66617876,0.79946312,2.18477870,0.96410329,0.03332626,0.24572303,-0.09494417
0.58440462,-0.95412391,0.24008682,0.17346805,0.04375705,0.21698018,0.22732108,-0.07136991,0.22732109,0.29033582,-0.21250455,-0.07136989,-0.21250457,0.53380334,-0.00825287,-0.00683951,-0.00428618,0.69494526,0.00000000,0.00000000,0.00000000,0.61448867,0.00000000,0.00000000,-0.00000000,0.64256796,-3.43803644,-0.05059583,-9.12757015,10291009.21005011,0.00000000,0.00000000,0.00000000,7348085.28795838,0.00000000,0.00000000,-0.00000000,9135388.76920938,0.66619998,0.79951319,2.18474838,0.96410332,0.03334812,0.24574360,-0.09488291
0.58934951,-0.95413977,0.24006678,0.17340513,0.04377136,0.21694135,0.22727848,-0.07135125,0.22727848,0.29026523,-0.21245106,-0.07135125,-0.21245105,0.53384853,-0.01037650,-0.00844065,-0.00267925,0.69494526,0.00000000,0.00000000,0.00000000,0.61448867,0.00000000,0.00000000,-0.00000000,0.64256796,-3.43795681,-0.04344332,-9.10129356,10291009.21005011,0.00000000,0.00000000,0.00000000,7348085.28795838,0.00000000,0.00000000,-0.00000000,9135388.76920938,0.66622334,0.79956574,2.18471608,0.96410288,0.03336693,0.24576562,-0.09482377
0.60418471,-0.95418274,0.24003333,0.17320535,0.04380879,0.21684842,0.22717859,-0.07129037,0.22717859,0.29008778,-0.21230035,-0.07129038,-0.21230033,0.53401805,-0.01198527,-0.00635520,0.00219894,0.69494526,0.00000000,0.00000000,0.00000000,0.61448867,0.00000000,0.00000000,-0.00000000,0.64256796,-3.44042253,-0.06255385,-9.04163074,10291009.21005011,0.00000000,0.00000000,0.00000000,7348085.28795838,0.00000000,0.00000000,-0.00000000,9135388.76920938,0.66632138,0.79977038,2.18458541,0.96409806,0.03340136,0.24584665,-0.09465049
0.61901966,-0.95421672,0.23999952,0.17305313,0.04385536,0.21679336,0.22710278,-0.07123748,0.22710276,0.28994726,-0.21219199,-0.07123747,-0.21219199,0.53416496,-0.01512384,-0.01269842,0.00434560,0.69494526,0.00000000,0.00000000,0.00000000,0.61448867,0.00000000,0.00000000,-0.00000000,0.64256796,-3.39278030,-0.05488519,-9.01539707,10291009.21005011,0.00000000,0.00000000,0.00000000,7348085.28795838,0.00000000,0.00000000,-0.00000000,9135388.76920938,0.66641970,0.79996032,2.18445669,0.96409201,0.03338725,0.24590499,-0.09456542
0.62396455,-0.95422602,0.23998207,0.17301752,0.04388899,0.21679861,0.22708578,-0.07121434,0.22708576,0.28991083,-0.21217192,-0.07121435,-0.21217190,0.53419207,-0.01138323,-0.01476062,-0.00160229,0.69494526,0.00000000,0.00000000,0.00000000,0.61448867,0.00000000,0.00000000,-0.00000000,0.64256796,-3.39039421,-0.05008693,-9.00106907,10291009.21005011,0.00000000,0.00000000,0.00000000,7348085.28795838,0.00000000,0.00000000,-0.00000000,9135388.76920938,0.66643477,0.79998813,2.18443734,0.96409090,0.03338250,0.24591312,-0.09455732
0.62890971,-0.95423394,0.23996356,0.17298883,0.04393107,0.21681710,0.22707159,-0.07118883,0.22707161,0.28987641,-0.21216058,-0.07118883,-0.21216061,0.53421129,-0.00926585,-0.01684390,-0.00215617,0.69494526,0.00000000,0.00000000,0.00000000,0.61448867,0.00000000,0.00000000,-0.00000000,0.64256796,-3.39739347,-0.04540350,-9.00343227,10291009.21005011,0.00000000,0.00000000,0.00000000,7348085.28795838,0.00000000,0.00000000,-0.00000000,9135388.76920938,0.66646959,0.80005104,2.18439320,0.96408803,0.03336984,0.24593204,-0.09454184
0.63385460,-0.95424390,0.23993665,0.17296097,0.04397175,0.21682215,0.22704522,-0.07116590,0.22704522,0.28982747,-0.21214520,-0.07116591,-0.21214524,0.53422234,-0.01297435,-0.01635520,-0.00378888,0.69494526,0.00000000,0.00000000,0.00000000,0.61448867,0.00000000,0.00000000,-0.00000000,0.64256796,-3.40216565,-0.05261342,-9.02014923,10291009.21005011,0.00000000,0.00000000,0.00000000,7348085.28795838,0.00000000,0.00000000,-0.00000000,9135388.76920938,0.66650865,0.80011950,2.18434460,0.96408430,0.03335365,0.24595401,-0.09452847
0.63879950,-0.95425320,0.23990732,0.17293736,0.04402256,0.21683961,0.22702330,-0.07113842,0.22702330,0.28978370,-0.21213530,-0.07113843,-0.21213532,0.53422424,-0.01083696,-0.01738342,-0.00648925,0.69494526,0.00000000,0.00000000,0.00000000,0.61448867,0.00000000,0.00000000,-0.00000000,0.64256796,-3.41412258,-0.06944253,-9.03687382,10291009.21005011,0.00000000,0.00000000,0.00000000,7348085.28795838,0.00000000,0.00000000,-0.00000000,9135388.76920938,0.66655064,0.80019112,2.18429322,0.96407968,0.03333484,0.24597910,-0.09451694
0.64621710,-0.95427036,0.23984164,0.17291082,0.04411250,0.21685881,0.22697300,-0.07109545,0.22697300,0.28969690,-0.21211842,-0.07109544,-0.21211840,0.53419505,-0.00602982,-0.02048648,-0.01243679,0.69494526,0.00000000,0.00000000,0.00000000,0.61448867,0.00000000,0.00000000,-0.00000000,0.64256796,-3.43082523,-0.08155105,-9.05358696,10291009.21005011,0.00000000,0.00000000,0.00000000,7348085.28795838,0.00000000,0.00000000,-0.00000000,9135388.76920938,0.66659898,0.80027151,2.18423500,0.96407357,0.03331245,0.24601051,-0.09450533
0.65116199,-0.95428127,0.23979554,0.17289737,0.04417967,0.21687999,0.22693908,-0.07106467,0.22693904,0.28963690,-0.21211301,-0.07106464,-0.21211305,0.53416783,-0.00549488,-0.02153306,-0.01189674,0.69494526,0.00000000,0.00000000,0.00000000,0.61448867,0.00000000,0.00000000,-0.00000000,0.64256796,-3.43559742,-0.06966828,-9.06551075,10291009.21005011,0.00000000,0.00000000,0.00000000,7348085.28795838,0.00000000,0.00000000,-0.00000000,9135388.76920938,0.66664211,0.80034171,2.18418374,0.96406742,0.03329253,0.24604127,-0.09449508
0.65610715,-0.95429307,0.23974936,0.17287746,0.04425314,0.21690537,0.22690497,-0.07102806,0.22690495,0.28957420,-0.21210538,-0.07102805,-0.21210534,0.53413947,-0.00497810,-0.01837127,-0.01405209,0.69494526,0.00000000,0.00000000,0.00000000,0.61448867,0.00000000,0.00000000,-0.00000000,0.64256796,-3.45229983,-0.04836458,-9.08458042,10291009.21005011,0.00000000,0.00000000,0.00000000,7348085.28795838,0.00000000,0.00000000,-0.00000000,9135388.76920938,0.66668746,0.80041428,2.18413032,0.96406035,0.03327214,0.24607611,-0.09448357
0.67094209,-0.95432705,0.23961146,0.17282419,0.04447616,0.21698869,0.22680322,-0.07091833,0.22680324,0.28938518,-0.21208605,-0.07091829,-0.21208604,0.53405448,-0.00607857,-0.01417786,-0.00917383,0.69494526,0.00000000,0.00000000,0.00000000,0.61448867,0.00000000,0.00000000,-0.00000000,0.64256796,-3.47854686,-0.02954778,-9.15617085,10291009.21005011,0.00000000,0.00000000,0.00000000,7348085.28795838,0.00000000,0.00000000,-0.00000000,9135388.76920938,0.66684731,0.80066478,2.18394114,0.96403470,0.03320761,0.24620448,-0.09443358
0.68577703,-0.95436925,0.23947905,0.17272478,0.04466840,0.21701429,0.22667606,-0.07081145,0.22667609,0.28916143,-0.21202008,-0.07081144,-0.21202008,0.53401106,-0.01139864,-0.01002440,-0.01025837,0.69494526,0.00000000,0.00000000,0.00000000,0.61448867,0.00000000,0.00000000,-0.00000000,0.64256796,-3.44755411,-0.01728637,-9.11320591,10291009.21005011,0.00000000,0.00000000,0.00000000,7348085.28795838,0.00000000,0.00000000,-0.00000000,9135388.76920938,0.66699388,0.80088983,2.18376271,0.96401453,0.03315855,0.24631357,-0.09437230
0.70061198,-0.95440400,0.23936576,0.17265624,0.04479831,0.21700289,0.22656349,-0.07074708,0.22656347,0.28898043,-0.21197110,-0.07074709,-0.21197113,0.53400572,-0.01987478,-0.01484882,-0.00163514,0.69494526,0.00000000,0.00000000,0.00000000,0.61448867,0.00000000,0.00000000,-0.00000000,0.64256796,-3.44516802,0.01376434,-9.05587769,10291009.21005011,0.00000000,0.00000000,0.00000000,7348085.28795838,0.00000000,0.00000000,-0.00000000,9135388.76920938,0.66715479,0.80112644,2.18356482,0.96399671,0.03310613,0.24642085,-0.09429263
0.70555713,-0.95441341,0.23933612,0.17263742,0.04482857,0.21699637,0.22653542,-0.07073379,0.22653542,0.28893813,-0.21196388,-0.07073380,-0.21196388,0.53401442,-0.01719889,-0.01744921,-0.00488139,0.69494526,0.00000000,0.00000000,0.00000000,0.61448867,0.00000000,0.00000000,-0.00000000,0.64256796,-3.42607951,0.03305770,-9.05109596,10291009.21005011,0.00000000,0.00000000,0.00000000,7348085.28795838,0.00000000,0.00000000,-0.00000000,9135388.76920938,0.66720518,0.80119732,2.18350351,0.96399169,0.03308859,0.24645263,-0.09426703
0.71297447,-0.95442307,0.23932783,0.17262909,0.04470041,0.21682344,0.22646908,-0.07082225,0.22646907,0.28887924,-0.21192637,-0.07082226,-0.21192634,0.53413136,-0.01934484,-0.01694836,-0.00110666,0.69494526,0.00000000,0.00000000,0.00000000,0.61448867,0.00000000,0.00000000,-0.00000000,0.64256796,-3.40688491,0.03802187,-9.05586720,10291009.21005011,0.00000000,0.00000000,0.00000000,7348085.28795838,0.00000000,0.00000000,-0.00000000,9135388.76920938,0.66726432,0.80127823,2.18343243,0.96398592,0.03306687,0.24648937,-0.09423759
0.71791963,-0.95441955,0.23933092,0.17267786,0.04456887,0.21669518,0.22646297,-0.07092296,0.22646301,0.28892875,-0.21194646,-0.07092297,-0.21194644,0.53421057,-0.01934006,-0.01694749,-0.00273023,0.69494526,0.00000000,0.00000000,0.00000000,0.61448867,0.00000000,0.00000000,-0.00000000,0.64256796,-3.39495468,0.04053386,-9.05825996,10291009.21005011,0.00000000,0.00000000,0.00000000,7348085.28795838,0.00000000,0.00000000,-0.00000000,9135388.76920938,0.66732265,0.80135556,2.18336341,0.96398025,0.03304412,0.24652528,-0.09420966
0.72286452,-0.95441228,0.23933870,0.17274114,0.04443762,0.21658183,0.22646943,-0.07102739,0.22646943,0.28899858,-0.21198471,-0.07102740,-0.21198472,0.53428755,-0.01825069,-0.02114403,0.00106169,0.69494526,0.00000000,0.00000000,0.00000000,0.61448867,0.00000000,0.00000000,-0.00000000,0.64256796,-3.39508700,0.05486547,-9.04632092,10291009.21005011,0.00000000,0.00000000,0.00000000,7348085.28795838,0.00000000,0.00000000,-0.00000000,9135388.76920938,0.66738288,0.80143306,2.18329307,0.96397430,0.03301960,0.24656227,-0.09418233
0.73769972,-0.95437509,0.23937494,0.17298044,0.04410912,0.21637230,0.22655189,-0.07131563,0.22655189,0.28927753,-0.21217748,-0.07131563,-0.21217750,0.53447483,-0.00974551,-0.02736979,0.00485586,0.69494526,0.00000000,0.00000000,0.00000000,0.61448867,0.00000000,0.00000000,-0.00000000,0.64256796,-3.43800974,0.06157133,-9.02718639,10291009.21005011,0.00000000,0.00000000,0.00000000,7348085.28795838,0.00000000,0.00000000,-0.00000000,9135388.76920938,0.66762781,0.80172760,2.18301245,0.96394751,0.03291708,0.24671490,-0.09409265
0.75253467,-0.95433635,0.23941596,0.17322099,0.04377953,0.21616936,0.22664181,-0.07160548,0.22664179,0.28957139,-0.21238999,-0.07160549,-0.21238996,0.53466240,-0.00978408,-0.02105887,0.00270247,0.69494526,0.00000000,0.00000000,0.00000000,0.61448867,0.00000000,0.00000000,-0.00000000,0.64256796,-3.41648221,0.05463248,-9.16328716,10291009.21005011,0.00000000,0.00000000,0.00000000,7348085.28795838,0.00000000,0.00000000,-0.00000000,9135388.76920938,0.66783834,0.80195776,2.18277279,0.96392159,0.03283893,0.24684299,-0.09404955
0.75747956,-0.95432669,0.23943298,0.17327888,0.04366740,0.21609097,0.22666494,-0.07169607,0.22666494,0.28965553,-0.21244111,-0.07169606,-0.21244107,0.53473955,-0.00979220,-0.02000744,0.00324630,0.69494526,0.00000000,0.00000000,0.00000000,0.61448867,0.00000000,0.00000000,-0.00000000,0.64256796,-3.40932393,0.05470773,-9.15135479,10291009.21005011,0.00000000,0.00000000,0.00000000,7348085.28795838,0.00000000,0.00000000,-0.00000000,9135388.76920938,0.66785562,0.80197575,2.18275307,0.96391941,0.03283334,0.24685303,-0.09404750
0.76242471,-0.95431739,0.23945084,0.17333332,0.04355704,0.21601413,0.22668804,-0.07178430,0.22668806,0.28973639,-0.21248739,-0.07178428,-0.21248736,0.53481914,-0.00976975,-0.02053088,0.00163258,0.69494526,0.00000000,0.00000000,0.00000000,0.61448867,0.00000000,0.00000000,-0.00000000,0.64256796,-3.41661477,0.05941773,-9.11315823,10291009.21005011,0.00000000,0.00000000,0.00000000,7348085.28795838,0.00000000,0.00000000,-0.00000000,9135388.76920938,0.66792939,0.80205087,2.18266900,0.96391001,0.03281085,0.24689527,-0.09404074
0.76736961,-0.95430708,0.23946714,0.17339301,0.04345532,0.21594935,0.22671443,-0.07186929,0.22671446,0.28982018,-0.21253925,-0.07186930,-0.21253924,0.53489054,-0.00658146,-0.02260260,0.00325984,0.69494526,0.00000000,0.00000000,0.00000000,0.61448867,0.00000000,0.00000000,-0.00000000,0.64256796,-3.42854476,0.06645209,-9.08688164,10291009.21005011,0.00000000,0.00000000,0.00000000,7348085.28795838,0.00000000,0.00000000,-0.00000000,9135388.76920938,0.66800484,0.80212479,2.18258351,0.96390025,0.03278988,0.24693780,-0.09403646
0.77231451,-0.95429599,0.23948422,0.17345491,0.04335645,0.21589062,0.22674371,-0.07195330,0.22674371,0.28990569,-0.21259473,-0.07195331,-0.21259477,0.53496005,-0.00763607,-0.02261205,-0.00053594,0.69494526,0.00000000,0.00000000,0.00000000,0.61448867,0.00000000,0.00000000,-0.00000000,0.64256796,-3.44042253,0.06632183,-9.10596848,10291009.21005011,0.00000000,0.00000000,0.00000000,7348085.28795838,0.00000000,0.00000000,-0.00000000,9135388.76920938,0.66808593,0.80220085,2.18249253,0.96388955,0.03276925,0.24698328,-0.09403382
0.77725966,-0.95428967,0.23949020,0.17350937,0.04324564,0.21579690,0.22675096,-0.07204407,0.22675096,0.28996763,-0.21263433,-0.07204405,-0.21263435,0.53502779,-0.01294445,-0.02003561,-0.00325023,0.69494526,0.00000000,0.00000000,0.00000000,0.61448867,0.00000000,0.00000000,-0.00000000,0.64256796,-3.44280863,0.05436382,-9.13940430,10291009.21005011,0.00000000,0.00000000,0.00000000,7348085.28795838,0.00000000,0.00000000,-0.00000000,9135388.76920938,0.66816031,0.80226748,2.18241018,0.96387955,0.03275181,0.24702518,-0.09403239
0.78220455,-0.95428407,0.23949738,0.17355762,0.04313454,0.21570153,0.22675825,-0.07213281,0.22675827,0.29003074,-0.21266988,-0.07213283,-0.21266990,0.53509916,-0.01085501,-0.01843900,-0.00108671,0.69494526,0.00000000,0.00000000,0.00000000,0.61448867,0.00000000,0.00000000,-0.00000000,0.64256796,-3.43313169,0.05206548,-9.14178753,10291009.21005011,0.00000000,0.00000000,0.00000000,7348085.28795838,0.00000000,0.00000000,-0.00000000,9135388.76920938,0.66823834,0.80233429,2.18232501,0.96386887,0.03273494,0.24706947,-0.09403137
0.78962215,-0.95427799,0.23950003,0.17362446,0.04298609,0.21556737,0.22676411,-0.07225424,0.22676412,0.29011051,-0.21271249,-0.07225423,-0.21271248,0.53519357,-0.00498445,-0.02310994,-0.00487045,0.69494526,0.00000000,0.00000000,0.00000000,0.61448867,0.00000000,0.00000000,-0.00000000,0.64256796,-3.41404343,0.05703931,-9.10598278,10291009.21005011,0.00000000,0.00000000,0.00000000,7348085.28795838,0.00000000,0.00000000,-0.00000000,9135388.76920938,0.66831968,0.80240077,2.18223756,0.96385756,0.03271888,0.24711611,-0.09403037
0.80445710,-0.95426631,0.23949906,0.17376184,0.04269391,0.21529832,0.22676553,-0.07249782,0.22676554,0.29025484,-0.21280342,-0.07249783,-0.21280344,0.53536960,-0.00762826,-0.02155769,-0.00540399,0.69494526,0.00000000,0.00000000,0.00000000,0.61448867,0.00000000,0.00000000,-0.00000000,0.64256796,-3.42610574,0.06169915,-9.07972050,10291009.21005011,0.00000000,0.00000000,0.00000000,7348085.28795838,0.00000000,0.00000000,-0.00000000,9135388.76920938,0.66865698,0.80264594,2.18188913,0.96380945,0.03266817,0.24731454,-0.09401946
0.81929204,-0.95425838,0.23946272,0.17392150,0.04242501,0.21502449,0.22674534,-0.07273991,0.22674534,0.29037537,-0.21289559,-0.07273989,-0.21289557,0.53548987,-0.00121556,-0.02622142,-0.01134654,0.69494526,0.00000000,0.00000000,0.00000000,0.61448867,0.00000000,0.00000000,-0.00000000,0.64256796,-3.44286156,0.08539428,-9.07491684,10291009.21005011,0.00000000,0.00000000,0.00000000,7348085.28795838,0.00000000,0.00000000,-0.00000000,9135388.76920938,0.66892430,0.80281258,2.18162213,0.96377396,0.03264400,0.24746348,-0.09399975
0.82423719,-0.95425618,0.23944828,0.17397186,0.04234978,0.21494675,0.22673850,-0.07281191,0.22673848,0.29041021,-0.21292835,-0.07281195,-0.21292838,0.53552086,0.00034902,-0.02252409,-0.01241966,0.69494526,0.00000000,0.00000000,0.00000000,0.61448867,0.00000000,0.00000000,-0.00000000,0.64256796,-3.46666932,0.08752520,-9.09399605,10291009.21005011,0.00000000,0.00000000,0.00000000,7348085.28795838,0.00000000,0.00000000,-0.00000000,9135388.76920938,0.66893755,0.80282032,2.18160896,0.96377234,0.03264314,0.24747038,-0.09399849
0.82918209,-0.95425367,0.23943469,0.17402513,0.04226384,0.21485807,0.22672890,-0.07289099,0.22672890,0.29044396,-0.21295907,-0.07289098,-0.21295907,0.53555757,-0.00178238,-0.02096853,-0.01188050,0.69494526,0.00000000,0.00000000,0.00000000,0.61448867,0.00000000,0.00000000,-0.00000000,0.64256796,-3.47621369,0.08265170,-9.09399509,10291009.21005011,0.00000000,0.00000000,0.00000000,7348085.28795838,0.00000000,0.00000000,-0.00000000,9135388.76920938,0.66903324,0.80287484,2.18151389,0.96376101,0.03263801,0.24751902,-0.09398837
0.83412699,-0.95424980,0.23942302,0.17408232,0.04218196,0.21477941,0.22672591,-0.07296839,0.22672586,0.29048664,-0.21299635,-0.07296839,-0.21299638,0.53559231,-0.00072844,-0.02095856,-0.01079736,0.69494526,0.00000000,0.00000000,0.00000000,0.61448867,0.00000000,0.00000000,-0.00000000,0.64256796,-3.46425676,0.07322836,-9.07013416,10291009.21005011,0.00000000,0.00000000,0.00000000,7348085.28795838,0.00000000,0.00000000,-0.00000000,9135388.76920938,0.66913084,0.80292798,2.18141713,0.96375005,0.03263476,0.24756683,-0.09397596
0.83907214,-0.95424622,0.23940673,0.17414176,0.04210842,0.21470686,0.22672248,-0.07304224,0.22672248,0.29052733,-0.21303512,-0.07304222,-0.21303512,0.53561707,0.00193440,-0.02145549,-0.01403834,0.69494526,0.00000000,0.00000000,0.00000000,0.61448867,0.00000000,0.00000000,-0.00000000,0.64256796,-3.44994020,0.07576543,-9.04626560,10291009.21005011,0.00000000,0.00000000,0.00000000,7348085.28795838,0.00000000,0.00000000,-0.00000000,9135388.76920938,0.66923074,0.80297982,2.18131833,0.96373937,0.03263363,0.24761433,-0.09396074
0.84401703,-0.95424181,0.23939641,0.17419703,0.04203971,0.21464598,0.22672537,-0.07311118,0.22672537,0.29057401,-0.21307785,-0.07311119,-0.21307787,0.53564654,0.00561307,-0.01879022,-0.01186323,0.69494526,0.00000000,0.00000000,0.00000000,0.61448867,0.00000000,0.00000000,-0.00000000,0.64256796,-3.44747472,0.07339667,-9.04864883,10291009.21005011,0.00000000,0.00000000,0.00000000,7348085.28795838,0.00000000,0.00000000,-0.00000000,9135388.76920938,0.66933052,0.80302907,2.18122001,0.96372910,0.03263467,0.24766093,-0.09394283
0.84896219,-0.95423692,0.23938209,0.17425998,0.04197089,0.21458368,0.22672523,-0.07318318,0.22672523,0.29061568,-0.21312201,-0.07318318,-0.21312201,0.53566992,0.00191763,-0.02040498,-0.01350121,0.69494526,0.00000000,0.00000000,0.00000000,0.61448867,0.00000000,0.00000000,-0.00000000,0.64256796,-3.44747472,0.06623691,-9.06536865,10291009.21005011,0.00000000,0.00000000,0.00000000,7348085.28795838,0.00000000,0.00000000,-0.00000000,9135388.76920938,0.66944569,0.80308276,2.18110728,0.96371747,0.03263820,0.24771485,-0.09391883
0.85390708,-0.95423084,0.23936668,0.17433047,0.04190445,0.21452747,0.22672923,-0.07325619,0.22672925,0.29066509,-0.21317229,-0.07325618,-0.21317234,0.53568758,0.00512551,-0.02563189,-0.01188187,0.69494526,0.00000000,0.00000000,0.00000000,0.61448867,0.00000000,0.00000000,-0.00000000,0.64256796,-3.45940518,0.07088467,-9.07490635,10291009.21005011,0.00000000,0.00000000,0.00000000,7348085.28795838,0.00000000,0.00000000,-0.00000000,9135388.76920938,0.66952841,0.80311922,2.18102702,0.96370907,0.03264206,0.24775433,-0.09389945
0.86874203,-0.95420802,0.23933646,0.17455018,0.04168161,0.21435549,0.22675548,-0.07348998,0.22675547,0.29084067,-0.21334577,-0.07348995,-0.21334574,0.53576190,-0.00019731,-0.01990021,-0.01241456,0.69494526,0.00000000,0.00000000,0.00000000,0.61448867,0.00000000,0.00000000,-0.00000000,0.64256796,-3.45712495,0.09001212,-9.11548615,10291009.21005011,0.00000000,0.00000000,0.00000000,7348085.28795838,0.00000000,0.00000000,-0.00000000,9135388.76920938,0.66990706,0.80326503,2.18066787,0.96366838,0.03266997,0.24794950,-0.09379220
0.88604967,-0.95416600,0.23933537,0.17484032,0.04143276,0.21423496,0.22684585,-0.07376042,0.22684585,0.29111575,-0.21359531,-0.07376041,-0.21359534,0.53586534,-0.00228024,-0.02939104,-0.00703686,0.69494526,0.00000000,0.00000000,0.00000000,0.61448867,0.00000000,0.00000000,-0.00000000,0.64256796,-3.43798351,0.05679573,-9.02718735,10291009.21005011,0.00000000,0.00000000,0.00000000,7348085.28795838,0.00000000,0.00000000,-0.00000000,9135388.76920938,0.67023313,0.80336725,2.18036342,0.96363061,0.03270318,0.24812991,-0.09369145
0.89099457,-0.95415103,0.23933466,0.17494069,0.04135788,0.21420533,0.22687872,-0.07384558,0.22687870,0.29121084,-0.21368448,-0.07384559,-0.21368453,0.53588767,-0.00174507,-0.03201697,-0.00325365,0.69494526,0.00000000,0.00000000,0.00000000,0.61448867,0.00000000,0.00000000,-0.00000000,0.64256796,-3.43321133,0.04729955,-9.05823708,10291009.21005011,0.00000000,0.00000000,0.00000000,7348085.28795838,0.00000000,0.00000000,-0.00000000,9135388.76920938,0.67028044,0.80338054,2.18031920,0.96362501,0.03270846,0.24815628,-0.09367742
0.89593972,-0.95413613,0.23933777,0.17503589,0.04128215,0.21417718,0.22691501,-0.07392923,0.22691505,0.29130944,-0.21377303,-0.07392924,-0.21377305,0.53591625,-0.00120044,-0.03148327,-0.00540665,0.69494526,0.00000000,0.00000000,0.00000000,0.61448867,0.00000000,0.00000000,-0.00000000,0.64256796,-3.44763350,0.04715872,-9.08211327,10291009.21005011,0.00000000,0.00000000,0.00000000,7348085.28795838,0.00000000,0.00000000,-0.00000000,9135388.76920938,0.67039690,0.80341171,2.18021009,0.96361118,0.03272182,0.24822066,-0.09364446
0.90088462,-0.95412105,0.23934253,0.17512900,0.04120700,0.21415086,0.22695203,-0.07401159,0.22695205,0.29140796,-0.21386023,-0.07401161,-0.21386025,0.53594672,0.00090499,-0.02988481,-0.00377315,0.69494526,0.00000000,0.00000000,0.00000000,0.61448867,0.00000000,0.00000000,-0.00000000,0.64256796,-3.47388029,0.05165600,-9.07970524,10291009.21005011,0.00000000,0.00000000,0.00000000,7348085.28795838,0.00000000,0.00000000,-0.00000000,9135388.76920938,0.67050684,0.80343919,2.18010658,0.96359815,0.03273481,0.24828024,-0.09361607
0.90582951,-0.95410407,0.23935246,0.17522635,0.04112918,0.21413022,0.22699411,-0.07409587,0.22699411,0.29151082,-0.21394998,-0.07409589,-0.21395000,0.53598350,-0.00174964,-0.03096576,0.00000505,0.69494526,0.00000000,0.00000000,0.00000000,0.61448867,0.00000000,0.00000000,-0.00000000,0.64256796,-3.48342466,0.05155566,-9.06537437,10291009.21005011,0.00000000,0.00000000,0.00000000,7348085.28795838,0.00000000,0.00000000,-0.00000000,9135388.76920938,0.67062652,0.80346704,2.17999326,0.96358405,0.03274917,0.24834332,-0.09358885
0.91077467,-0.95408297,0.23936395,0.17534269,0.04105702,0.21412991,0.22705070,-0.07418202,0.22705071,0.29163452,-0.21405877,-0.07418204,-0.21405877,0.53601113,-0.00225360,-0.03465166,-0.00108805,0.69494526,0.00000000,0.00000000,0.00000000,0.61448867,0.00000000,0.00000000,-0.00000000,0.64256796,-3.48342466,0.04678248,-9.04866600,10291009.21005011,0.00000000,0.00000000,0.00000000,7348085.28795838,0.00000000,0.00000000,-0.00000000,9135388.76920938,0.67073911,0.80349130,2.17988629,0.96357077,0.03276244,0.24840143,-0.09356664
0.91571956,-0.95405960,0.23937935,0.17546561,0.04098437,0.21413808,0.22711483,-0.07427020,0.22711483,0.29177128,-0.21418135,-0.07427023,-0.21418142,0.53603884,-0.00334284,-0.03098265,0.00108295,0.69494526,0.00000000,0.00000000,0.00000000,0.61448867,0.00000000,0.00000000,-0.00000000,0.64256796,-3.48342466,0.04678248,-9.05821609,10291009.21005011,0.00000000,0.00000000,0.00000000,7348085.28795838,0.00000000,0.00000000,-0.00000000,9135388.76920938,0.67085799,0.80351490,2.17977328,0.96355662,0.03277572,0.24846215,-0.09354649
0.92066471,-0.95403403,0.23939112,0.17560208,0.04092542,0.21416658,0.22718728,-0.07435398,0.22718726,0.29191787,-0.21431440,-0.07435402,-0.21431444,0.53605196,-0.00070216,-0.03043051,0.00217188,0.69494526,0.00000000,0.00000000,0.00000000,0.61448867,0.00000000,0.00000000,-0.00000000,0.64256796,-3.49771476,0.05378933,-9.08684921,10291009.21005011,0.00000000,0.00000000,0.00000000,7348085.28795838,0.00000000,0.00000000,-0.00000000,9135388.76920938,0.67097458,0.80353607,2.17966269,0.96354249,0.03278753,0.24852169,-0.09352973
0.93549966,-0.95394123,0.23939858,0.17609538,0.04092433,0.21448013,0.22746750,-0.07452632,0.22746750,0.29240984,-0.21483960,-0.07452635,-0.21483956,0.53595032,-0.00655874,-0.02786219,0.00269653,0.69494526,0.00000000,0.00000000,0.00000000,0.61448867,0.00000000,0.00000000,-0.00000000,0.64256796,-3.49047709,0.04669756,-9.15131474,10291009.21005011,0.00000000,0.00000000,0.00000000,7348085.28795838,0.00000000,0.00000000,-0.00000000,9135388.76920938,0.67143129,0.80360172,2.17923447,0.96348321,0.03281770,0.24876345,-0.09348711
0.95280705,-0.95390165,0.23936448,0.17631069,0.04111976,0.21482403,0.22762221,-0.07450195,0.22762221,0.29261229,-0.21514473,-0.07450193,-0.21514472,0.53587233,0.00089879,-0.03146424,-0.00324709,0.69494526,0.00000000,0.00000000,0.00000000,0.61448867,0.00000000,0.00000000,-0.00000000,0.64256796,-3.49283671,0.04189691,-9.04626560,10291009.21005011,0.00000000,0.00000000,0.00000000,7348085.28795838,0.00000000,0.00000000,-0.00000000,9135388.76920938,0.67179822,0.80363766,2.17889642,0.96343006,0.03282113,0.24897456,-0.09347175
0.95775220,-0.95389515,0.23935047,0.17635845,0.04114693,0.21487160,0.22763502,-0.07451423,0.22763501,0.29264162,-0.21524090,-0.07451422,-0.21524089,0.53585273,0.00143280,-0.03040558,-0.00486205,0.69494526,0.00000000,0.00000000,0.00000000,0.61448867,0.00000000,0.00000000,-0.00000000,0.64256796,-3.48334527,0.02768254,-9.05822754,10291009.21005011,0.00000000,0.00000000,0.00000000,7348085.28795838,0.00000000,0.00000000,-0.00000000,9135388.76920938,0.67185645,0.80364225,2.17884298,0.96342134,0.03282023,0.24900893,-0.09347037
0.96269710,-0.95389640,0.23932005,0.17637424,0.04122652,0.21494803,0.22765501,-0.07448170,0.22765501,0.29266618,-0.21528598,-0.07448173,-0.21528603,0.53581429,0.00729676,-0.03349836,-0.00972422,0.69494526,0.00000000,0.00000000,0.00000000,0.61448867,0.00000000,0.00000000,-0.00000000,0.64256796,-3.46664262,0.01353860,-9.09167671,10291009.21005011,0.00000000,0.00000000,0.00000000,7348085.28795838,0.00000000,0.00000000,-0.00000000,9135388.76920938,0.67198644,0.80365156,2.17872358,0.96340179,0.03281708,0.24908581,-0.09346808
0.96764199,-0.95390326,0.23930071,0.17635497,0.04126230,0.21496275,0.22764183,-0.07446534,0.22764181,0.29263632,-0.21528170,-0.07446531,-0.21528166,0.53582447,0.00623190,-0.03298365,-0.00918470,0.69494526,0.00000000,0.00000000,0.00000000,0.61448867,0.00000000,0.00000000,-0.00000000,0.64256796,-3.45471239,0.00650426,-9.11795330,10291009.21005011,0.00000000,0.00000000,0.00000000,7348085.28795838,0.00000000,0.00000000,-0.00000000,9135388.76920938,0.67211765,0.80365977,2.17860273,0.96338209,0.03281261,0.24916312,-0.09346665
0.97258715,-0.95391381,0.23927067,0.17633013,0.04129983,0.21496192,0.22761492,-0.07444754,0.22761492,0.29259040,-0.21526696,-0.07444754,-0.21526700,0.53582641,0.00675195,-0.03034773,-0.01134137,0.69494526,0.00000000,0.00000000,0.00000000,0.61448867,0.00000000,0.00000000,-0.00000000,0.64256796,-3.47141480,0.00871527,-9.12032795,10291009.21005011,0.00000000,0.00000000,0.00000000,7348085.28795838,0.00000000,0.00000000,-0.00000000,9135388.76920938,0.67224900,0.80366689,2.17848141,0.96336258,0.03280769,0.24923969,-0.09346538
0.97753204,-0.95391065,0.23923138,0.17638239,0.04137697,0.21504127,0.22762051,-0.07442763,0.22762048,0.29257250,-0.21528852,-0.07442761,-0.21528849,0.53577848,0.01575515,-0.02709781,-0.01563755,0.69494526,0.00000000,0.00000000,0.00000000,0.61448867,0.00000000,0.00000000,-0.00000000,0.64256796,-3.50482011,0.00836411,-9.11553288,10291009.21005011,0.00000000,0.00000000,0.00000000,7348085.28795838,0.00000000,0.00000000,-0.00000000,9135388.76920938,0.67238016,0.80367304,2.17836007,0.96334345,0.03280355,0.24931493,-0.09346329
0.98247719,-0.95389241,0.23919047,0.17651904,0.04145145,0.21516312,0.22766520,-0.07443888,0.22766522,0.29264626,-0.21543406,-0.07443888,-0.21543404,0.53567774,0.00990371,-0.02242336,-0.01834807,0.69494526,0.00000000,0.00000000,0.00000000,0.61448867,0.00000000,0.00000000,-0.00000000,0.64256796,-3.52868056,0.00334012,-9.10836029,10291009.21005011,0.00000000,0.00000000,0.00000000,7348085.28795838,0.00000000,0.00000000,-0.00000000,9135388.76920938,0.67251517,0.80367846,2.17823513,0.96332431,0.03280128,0.24939068,-0.09345929
0.98742209,-0.95387501,0.23914231,0.17665628,0.04154482,0.21529920,0.22771062,-0.07443907,0.22771062,0.29271882,-0.21557783,-0.07443909,-0.21557781,0.53556246,0.01205804,-0.02818641,-0.01781541,0.69494526,0.00000000,0.00000000,0.00000000,0.61448867,0.00000000,0.00000000,-0.00000000,0.64256796,-3.53345299,-0.00864298,-9.09643173,10291009.21005011,0.00000000,0.00000000,0.00000000,7348085.28795838,0.00000000,0.00000000,-0.00000000,9135388.76920938,0.67265427,0.80368322,2.17810648,0.96330532,0.03280229,0.24946655,-0.09345219
1.00225703,-0.95382959,0.23898920,0.17704484,0.04181438,0.21566718,0.22781109,-0.07444162,0.22781109,0.29288626,-0.21598608,-0.07444162,-0.21598611,0.53522182,0.00619102,-0.02140962,-0.01672562,0.69494526,0.00000000,0.00000000,0.00000000,0.61448867,0.00000000,0.00000000,-0.00000000,0.64256796,-3.52637410,0.01291878,-9.11074638,10291009.21005011,0.00000000,0.00000000,0.00000000,7348085.28795838,0.00000000,0.00000000,-0.00000000,9135388.76920938,0.67318181,0.80369490,2.17762332,0.96324226,0.03285222,0.24972754,-0.09338756
1.01709198,-0.95377612,0.23888172,0.17742960,0.04201631,0.21600994,0.22794414,-0.07447567,0.22794414,0.29311160,-0.21639735,-0.07447566,-0.21639732,0.53496095,0.00139376,-0.02041061,-0.00970099,0.69494526,0.00000000,0.00000000,0.00000000,0.61448867,0.00000000,0.00000000,-0.00000000,0.64256796,-3.51682973,0.00585936,-9.05823421,10291009.21005011,0.00000000,0.00000000,0.00000000,7348085.28795838,0.00000000,0.00000000,-0.00000000,9135388.76920938,0.67358576,0.80369885,2.17726080,0.96320284,0.03293959,0.24990114,-0.09329897
1.02203713,-0.95375502,0.23885798,0.17755969,0.04208045,0.21613771,0.22800442,-0.07448693,0.22800443,0.29320829,-0.21654247,-0.07448692,-0.21654251,0.53488719,0.00192764,-0.02303656,-0.00646119,0.69494526,0.00000000,0.00000000,0.00000000,0.61448867,0.00000000,0.00000000,-0.00000000,0.64256796,-3.50725913,0.00118408,-9.03198051,10291009.21005011,0.00000000,0.00000000,0.00000000,7348085.28795838,0.00000000,0.00000000,-0.00000000,9135388.76920938,0.67366273,0.80369934,2.17719202,0.96319550,0.03295764,0.24993391,-0.09328058
1.03934452,-0.95369297,0.23879549,0.17791235,0.04235119,0.21661250,0.22821144,-0.07446417,0.22821146,0.29351782,-0.21701860,-0.07446416,-0.21701858,0.53466988,-0.00125327,-0.02780750,0.00380055,0.69494526,0.00000000,0.00000000,0.00000000,0.61448867,0.00000000,0.00000000,-0.00000000,0.64256796,-3.46908188,0.02545127,-9.02720642,10291009.21005011,0.00000000,0.00000000,0.00000000,7348085.28795838,0.00000000,0.00000000,-0.00000000,9135388.76920938,0.67420098,0.80370195,2.17670941,0.96314165,0.03306876,0.25017083,-0.09316211
1.04428967,-0.95368165,0.23879649,0.17796211,0.04239128,0.21669786,0.22824953,-0.07445982,0.22824952,0.29355034,-0.21706468,-0.07445982,-0.21706464,0.53467978,-0.00339164,-0.02677902,0.00487289,0.69494526,0.00000000,0.00000000,0.00000000,0.61448867,0.00000000,0.00000000,-0.00000000,0.64256796,-3.45229983,0.02084644,-9.02005005,10291009.21005011,0.00000000,0.00000000,0.00000000,7348085.28795838,0.00000000,0.00000000,-0.00000000,9135388.76920938,0.67426274,0.80370225,2.17665366,0.96313528,0.03307907,0.25019808,-0.09315110
1.04923457,-0.95367932,0.23879187,0.17796880,0.04244187,0.21676664,0.22827954,-0.07443937,0.22827954,0.29359055,-0.21711879,-0.07443937,-0.21711880,0.53468231,0.00193921,-0.03040426,0.00217266,0.69494526,0.00000000,0.00000000,0.00000000,0.61448867,0.00000000,0.00000000,-0.00000000,0.64256796,-3.43798351,0.00906400,-8.98903275,10291009.21005011,0.00000000,0.00000000,0.00000000,7348085.28795838,0.00000000,0.00000000,-0.00000000,9135388.76920938,0.67441711,0.80370307,2.17651380,0.96311930,0.03310202,0.25026543,-0.09312722
1.05417972,-0.95365798,0.23879933,0.17806268,0.04248538,0.21689121,0.22835346,-0.07444812,0.22835346,0.29369704,-0.21724683,-0.07444812,-0.21724685,0.53466388,0.00249230,-0.03565922,0.00540809,0.69494526,0.00000000,0.00000000,0.00000000,0.61448867,0.00000000,0.00000000,-0.00000000,0.64256796,-3.43559742,-0.01239019,-8.96995449,10291009.21005011,0.00000000,0.00000000,0.00000000,7348085.28795838,0.00000000,0.00000000,-0.00000000,9135388.76920938,0.67457984,0.80370412,2.17636565,0.96310242,0.03312201,0.25033499,-0.09310773
1.05912462,-0.95364523,0.23879640,0.17811050,0.04258837,0.21704878,0.22840865,-0.07440705,0.22840866,0.29374517,-0.21733388,-0.07440702,-0.21733383,0.53463434,-0.00065332,-0.04200307,0.00700686,0.69494526,0.00000000,0.00000000,0.00000000,0.61448867,0.00000000,0.00000000,-0.00000000,0.64256796,-3.44275570,-0.02917155,-8.99145412,10291009.21005011,0.00000000,0.00000000,0.00000000,7348085.28795838,0.00000000,0.00000000,-0.00000000,9135388.76920938,0.67478581,0.80370579,2.17617754,0.96308105,0.03314260,0.25042117,-0.09308974
1.07395956,-0.95361120,0.23878279,0.17824782,0.04285137,0.21745542,0.22855683,-0.07431145,0.22855683,0.29389225,-0.21758954,-0.07431144,-0.21758958,0.53455878,-0.00329240,-0.04255493,0.00537674,0.69494526,0.00000000,0.00000000,0.00000000,0.61448867,0.00000000,0.00000000,-0.00000000,0.64256796,-3.46664262,-0.05089924,-9.09173870,10291009.21005011,0.00000000,0.00000000,0.00000000,7348085.28795838,0.00000000,0.00000000,-0.00000000,9135388.76920938,0.67524345,0.80371140,2.17576008,0.96303339,0.03317704,0.25060836,-0.09306677
1.08879451,-0.95358199,0.23874266,0.17839631,0.04310517,0.21782084,0.22867610,-0.07422813,0.22867614,0.29401166,-0.21782902,-0.07422812,-0.21782902,0.53445870,-0.00537552,-0.04625536,0.00157544,0.69494526,0.00000000,0.00000000,0.00000000,0.61448867,0.00000000,0.00000000,-0.00000000,0.64256796,-3.51200485,-0.06807950,-9.02965355,10291009.21005011,0.00000000,0.00000000,0.00000000,7348085.28795838,0.00000000,0.00000000,-0.00000000,9135388.76920938,0.67579314,0.80372299,2.17526294,0.96296902,0.03318894,0.25085505,-0.09306397
1.09373966,-0.95357370,0.23871218,0.17845757,0.04320392,0.21794351,0.22870557,-0.07419798,0.22870557,0.29404006,-0.21791287,-0.07419798,-0.21791287,0.53439594,-0.00589156,-0.04573200,-0.00329320,0.69494526,0.00000000,0.00000000,0.00000000,0.61448867,0.00000000,0.00000000,-0.00000000,0.64256796,-3.52396154,-0.07058908,-9.03442669,10291009.21005011,0.00000000,0.00000000,0.00000000,7348085.28795838,0.00000000,0.00000000,-0.00000000,9135388.76920938,0.67588956,0.80372571,2.17517637,0.96295629,0.03318627,0.25090346,-0.09306619
1.11104705,-0.95355713,0.23857495,0.17865635,0.04350501,0.21826486,0.22874625,-0.07412013,0.22874626,0.29408196,-0.21817318,-0.07412014,-0.21817318,0.53417240,-0.01283686,-0.03423017,-0.01086472,0.69494526,0.00000000,0.00000000,0.00000000,0.61448867,0.00000000,0.00000000,-0.00000000,0.64256796,-3.55731368,-0.05185238,-9.26358414,10291009.21005011,0.00000000,0.00000000,0.00000000,7348085.28795838,0.00000000,0.00000000,-0.00000000,9135388.76920938,0.67642920,0.80374545,2.17469535,0.96288033,0.03314997,0.25119192,-0.09308694
1.11599220,-0.95356327,0.23852220,0.17868012,0.04356183,0.21828261,0.22871619,-0.07410797,0.22871619,0.29404331,-0.21819932,-0.07410795,-0.21819929,0.53412416,-0.01655325,-0.03216331,-0.01411927,0.69494526,0.00000000,0.00000000,0.00000000,0.61448867,0.00000000,0.00000000,-0.00000000,0.64256796,-3.55012918,-0.04700637,-9.27551937,10291009.21005011,0.00000000,0.00000000,0.00000000,7348085.28795838,0.00000000,0.00000000,-0.00000000,9135388.76920938,0.67658762,0.80375283,2.17455540,0.96285758,0.03313432,0.25127876,-0.09309342
1.12093710,-0.95357513,0.23846653,0.17868088,0.04360320,0.21826452,0.22866815,-0.07409882,0.22866814,0.29398267,-0.21819901,-0.07409886,-0.21819912,0.53409040,-0.01711279,-0.02638307,-0.01627101,0.69494526,0.00000000,0.00000000,0.00000000,0.61448867,0.00000000,0.00000000,-0.00000000,0.64256796,-3.50956583,-0.03942021,-9.26359940,10291009.21005011,0.00000000,0.00000000,0.00000000,7348085.28795838,0.00000000,0.00000000,-0.00000000,9135388.76920938,0.67677176,0.80376231,2.17439391,0.96283176,0.03311513,0.25137839,-0.09309832
1.12588199,-0.95359510,0.23839648,0.17866065,0.04363395,0.21820158,0.22859082,-0.07409189,0.22859084,0.29388529,-0.21816525,-0.07409191,-0.21816527,0.53405722,-0.01607474,-0.02005889,-0.02112065,0.69494526,0.00000000,0.00000000,0.00000000,0.61448867,0.00000000,0.00000000,-0.00000000,0.64256796,-3.47141480,-0.02708354,-9.24690151,10291009.21005011,0.00000000,0.00000000,0.00000000,7348085.28795838,0.00000000,0.00000000,-0.00000000,9135388.76920938,0.67702862,0.80377707,2.17417150,0.96279798,0.03308912,0.25151188,-0.09309642
1.14071719,-0.95367533,0.23813030,0.17856200,0.04373662,0.21792927,0.22827615,-0.07406333,0.22827611,0.29347381,-0.21797843,-0.07406331,-0.21797843,0.53391471,-0.01070179,-0.02157099,-0.04058798,0.69494526,0.00000000,0.00000000,0.00000000,0.61448867,0.00000000,0.00000000,-0.00000000,0.64256796,-3.35455012,-0.01630331,-9.22548008,10291009.21005011,0.00000000,0.00000000,0.00000000,7348085.28795838,0.00000000,0.00000000,-0.00000000,9135388.76920938,0.67757193,0.80381307,2.17371644,0.96273974,0.03304808,0.25176112,-0.09303957
1.15555214,-0.95379317,0.23771265,0.17846513,0.04383463,0.21744686,0.22778089,-0.07406526,0.22778091,0.29285658,-0.21768606,-0.07406527,-0.21768611,0.53361741,-0.00212073,-0.02567721,-0.06601048,0.69494526,0.00000000,0.00000000,0.00000000,0.61448867,0.00000000,0.00000000,-0.00000000,0.64256796,-3.29728389,0.02487064,-9.25173950,10291009.21005011,0.00000000,0.00000000,0.00000000,7348085.28795838,0.00000000,0.00000000,-0.00000000,9135388.76920938,0.67819192,0.80385659,2.17323296,0.96269633,0.03303088,0.25199347,-0.09286566
1.16049703,-0.95383984,0.23753829,0.17843740,0.04387744,0.21725392,0.22757903,-0.07406737,0.22757906,0.29260692,-0.21757122,-0.07406735,-0.21757115,0.53347563,0.00110278,-0.02879541,-0.07412726,0.69494526,0.00000000,0.00000000,0.00000000,0.61448867,0.00000000,0.00000000,-0.00000000,0.64256796,-3.30682826,0.06056911,-9.25169945,10291009.21005011,0.00000000,0.00000000,0.00000000,7348085.28795838,0.00000000,0.00000000,-0.00000000,9135388.76920938,0.67828548,0.80386291,2.17316380,0.96269160,0.03303096,0.25202512,-0.09282880
1.17533198,-0.95399594,0.23694250,0.17835295,0.04404794,0.21663037,0.22689794,-0.07406233,0.22689794,0.29175850,-0.21719142,-0.07406235,-0.21719141,0.53295450,0.01284876,-0.03445073,-0.09305494,0.69494526,0.00000000,0.00000000,0.00000000,0.61448867,0.00000000,0.00000000,-0.00000000,0.64256796,-3.31393385,0.15595251,-9.18235970,10291009.21005011,0.00000000,0.00000000,0.00000000,7348085.28795838,0.00000000,0.00000000,-0.00000000,9135388.76920938,0.67898377,0.80390328,2.17267928,0.96266456,0.03304874,0.25225664,-0.09247330
1.18027713,-0.95404780,0.23673141,0.17833963,0.04411385,0.21642601,0.22666520,-0.07406267,0.22666518,0.29147127,-0.21707326,-0.07406269,-0.21707326,0.53275568,0.01763343,-0.03650498,-0.09358795,0.69494526,0.00000000,0.00000000,0.00000000,0.61448867,0.00000000,0.00000000,-0.00000000,0.64256796,-3.32347775,0.17255828,-9.13936234,10291009.21005011,0.00000000,0.00000000,0.00000000,7348085.28795838,0.00000000,0.00000000,-0.00000000,9135388.76920938,0.67912876,0.80390947,2.17258565,0.96266030,0.03305661,0.25230491,-0.09238311
1.18522203,-0.95409912,0.23651327,0.17833729,0.04418338,0.21622300,0.22643064,-0.07406560,0.22643063,0.29118387,-0.21696149,-0.07406563,-0.21696153,0.53254236,0.02083568,-0.03804790,-0.09682783,0.69494526,0.00000000,0.00000000,0.00000000,0.61448867,0.00000000,0.00000000,-0.00000000,0.64256796,-3.33782101,0.17956997,-9.13696194,10291009.21005011,0.00000000,0.00000000,0.00000000,7348085.28795838,0.00000000,0.00000000,-0.00000000,9135388.76920938,0.67934918,0.80391691,2.17244786,0.96265475,0.03307251,0.25237763,-0.09223646
1.19016718,-0.95415008,0.23629168,0.17834251,0.04424741,0.21601314,0.22619320,-0.07407483,0.22619320,0.29089459,-0.21685003,-0.07407481,-0.21685003,0.53232598,0.02088116,-0.04383065,-0.10008948,0.69494526,0.00000000,0.00000000,0.00000000,0.61448867,0.00000000,0.00000000,-0.00000000,0.64256796,-3.36645412,0.19358847,-9.18945599,10291009.21005011,0.00000000,0.00000000,0.00000000,7348085.28795838,0.00000000,0.00000000,-0.00000000,9135388.76920938,0.67957507,0.80392171,2.17231235,0.96265031,0.03309452,0.25245060,-0.09207507
1.20500212,-0.95430511,0.23561974,0.17836390,0.04440072,0.21533101,0.22546731,-0.07412982,0.22546731,0.29003595,-0.21652473,-0.07412986,-0.21652474,0.53167904,0.02027318,-0.03174152,-0.10006287,0.69494526,0.00000000,0.00000000,0.00000000,0.61448867,0.00000000,0.00000000,-0.00000000,0.64256796,-3.40699077,0.25521088,-9.39947128,10291009.21005011,0.00000000,0.00000000,0.00000000,7348085.28795838,0.00000000,0.00000000,-0.00000000,9135388.76920938,0.68032638,0.80391295,2.17190294,0.96264341,0.03321242,0.25267971,-0.09147438
1.22230951,-0.95447826,0.23488837,0.17835835,0.04457589,0.21458953,0.22467312,-0.07417806,0.22467312,0.28908298,-0.21614101,-0.07417806,-0.21614098,0.53099542,0.02769784,-0.03482380,-0.09300995,0.69494526,0.00000000,0.00000000,0.00000000,0.61448867,0.00000000,0.00000000,-0.00000000,0.64256796,-3.38795519,0.31508106,-9.24901676,10291009.21005011,0.00000000,0.00000000,0.00000000,7348085.28795838,0.00000000,0.00000000,-0.00000000,9135388.76920938,0.68111757,0.80385520,2.17153964,0.96264253,0.03339946,0.25290750,-0.09078349
1.22725467,-0.95451540,0.23469912,0.17839627,0.04462534,0.21442560,0.22448592,-0.07420120,0.22448592,0.28886516,-0.21607587,-0.07420116,-0.21607582,0.53080267,0.02667786,-0.04482990,-0.08654596,0.69494526,0.00000000,0.00000000,0.00000000,0.61448867,0.00000000,0.00000000,-0.00000000,0.64256796,-3.40701747,0.31487799,-9.22035217,10291009.21005011,0.00000000,0.00000000,0.00000000,7348085.28795838,0.00000000,0.00000000,-0.00000000,9135388.76920938,0.68127137,0.80383767,2.17147673,0.96264225,0.03344049,0.25295176,-0.09064795
1.24208961,-0.95460200,0.23419090,0.17858711,0.04467973,0.21393959,0.22400287,-0.07434048,0.22400287,0.28835992,-0.21598263,-0.07434052,-0.21598266,0.53028902,0.00702226,-0.04767143,-0.06658612,0.69494526,0.00000000,0.00000000,0.00000000,0.61448867,0.00000000,0.00000000,-0.00000000,0.64256796,-3.46664262,0.37152660,-9.49482250,10291009.21005011,0.00000000,0.00000000,0.00000000,7348085.28795838,0.00000000,0.00000000,-0.00000000,9135388.76920938,0.68215823,0.80369501,2.17115926,0.96263488,0.03368459,0.25321676,-0.08989275
1.24703451,-0.95462352,0.23405857,0.17865089,0.04465805,0.21377806,0.22387562,-0.07440395,0.22387562,0.28824439,-0.21596729,-0.07440396,-0.21596732,0.53017301,0.00274361,-0.04508969,-0.05901484,0.69494526,0.00000000,0.00000000,0.00000000,0.61448867,0.00000000,0.00000000,-0.00000000,0.64256796,-3.47380090,0.39770386,-9.51866817,10291009.21005011,0.00000000,0.00000000,0.00000000,7348085.28795838,0.00000000,0.00000000,-0.00000000,9135388.76920938,0.68241151,0.80364121,2.17108194,0.96263065,0.03375352,0.25329525,-0.08969087
1.25197966,-0.95464051,0.23394449,0.17871641,0.04463102,0.21363546,0.22377036,-0.07446797,0.22377038,0.28815729,-0.21596334,-0.07446798,-0.21596334,0.53007659,0.00376870,-0.04403207,-0.05035243,0.69494526,0.00000000,0.00000000,0.00000000,0.61448867,0.00000000,0.00000000,-0.00000000,0.64256796,-3.48570490,0.40712240,-9.47806168,10291009.21005011,0.00000000,0.00000000,0.00000000,7348085.28795838,0.00000000,0.00000000,-0.00000000,9135388.76920938,0.68272155,0.80356747,2.17099483,0.96262418,0.03383592,0.25339220,-0.08945510
1.25692455,-0.95465308,0.23385060,0.17877842,0.04460564,0.21352030,0.22368919,-0.07452656,0.22368917,0.28809643,-0.21596921,-0.07452656,-0.21596924,0.53000034,0.00798473,-0.04346653,-0.04330371,0.69494526,0.00000000,0.00000000,0.00000000,0.61448867,0.00000000,0.00000000,-0.00000000,0.64256796,-3.50956583,0.40925810,-9.41119576,10291009.21005011,0.00000000,0.00000000,0.00000000,7348085.28795838,0.00000000,0.00000000,-0.00000000,9135388.76920938,0.68301121,0.80349079,2.17092070,0.96261688,0.03391025,0.25348319,-0.08924748
1.27175950,-0.95466799,0.23361841,0.17902280,0.04452338,0.21326600,0.22352974,-0.07471575,0.22352974,0.28802580,-0.21606793,-0.07471576,-0.21606791,0.52979629,0.01115123,-0.04448998,-0.03354928,0.69494526,0.00000000,0.00000000,0.00000000,0.61448867,0.00000000,0.00000000,-0.00000000,0.64256796,-3.54066420,0.40655270,-9.44461155,10291009.21005011,0.00000000,0.00000000,0.00000000,7348085.28795838,0.00000000,0.00000000,-0.00000000,9135388.76920938,0.68409167,0.80314003,2.17070362,0.96258072,0.03416142,0.25381768,-0.08858864
1.28906715,-0.95466447,0.23342583,0.17929362,0.04451936,0.21318129,0.22346095,-0.07486663,0.22346095,0.28804668,-0.21624731,-0.07486664,-0.21624730,0.52959270,0.02275897,-0.04016764,-0.02755948,0.69494526,0.00000000,0.00000000,0.00000000,0.61448867,0.00000000,0.00000000,-0.00000000,0.64256796,-3.70761037,0.38569695,-9.48749542,10291009.21005011,0.00000000,0.00000000,0.00000000,7348085.28795838,0.00000000,0.00000000,-0.00000000,9135388.76920938,0.68521110,0.80267378,2.17057501,0.96253326,0.03438069,0.25413969,-0.08809486
1.29401204,-0.95466113,0.23338774,0.17936195,0.04451434,0.21316992,0.22345532,-0.07490671,0.22345531,0.28806612,-0.21630106,-0.07490672,-0.21630106,0.52955613,0.02325640,-0.03543001,-0.02646373,0.69494526,0.00000000,0.00000000,0.00000000,0.61448867,0.00000000,0.00000000,-0.00000000,0.64256796,-3.75055981,0.38285884,-9.58535957,10291009.21005011,0.00000000,0.00000000,0.00000000,7348085.28795838,0.00000000,0.00000000,-0.00000000,9135388.76920938,0.68529985,0.80263253,2.17056902,0.96252927,0.03439684,0.25416371,-0.08806289
1.30884699,-0.95466149,0.23333050,0.17945179,0.04444533,0.21308201,0.22343825,-0.07501407,0.22343825,0.28810959,-0.21638927,-0.07501408,-0.21638928,0.52957992,0.02356591,-0.00335121,-0.01717711,0.69494526,0.00000000,0.00000000,0.00000000,0.61448867,0.00000000,0.00000000,-0.00000000,0.64256796,-3.78879023,0.32757089,-9.69521904,10291009.21005011,0.00000000,0.00000000,0.00000000,7348085.28795838,0.00000000,0.00000000,-0.00000000,9135388.76920938,0.68659323,0.80196262,2.17055241,0.96247188,0.03462291,0.25447856,-0.08769149
1.31379214,-0.95466858,0.23331213,0.17944685,0.04440944,0.21301863,0.22341337,-0.07504597,0.22341335,0.28809104,-0.21637825,-0.07504595,-0.21637825,0.52961302,0.02034476,0.00292706,-0.02042631,0.69494526,0.00000000,0.00000000,0.00000000,0.61448867,0.00000000,0.00000000,-0.00000000,0.64256796,-3.78868413,0.30846855,-9.64031506,10291009.21005011,0.00000000,0.00000000,0.00000000,7348085.28795838,0.00000000,0.00000000,-0.00000000,9135388.76920938,0.68675263,0.80187133,2.17055949,0.96246552,0.03465045,0.25451128,-0.08765544
1.31873703,-0.95468140,0.23328617,0.17942128,0.04437319,0.21293396,0.22337323,-0.07507269,0.22337321,0.28805343,-0.21634740,-0.07507272,-0.21634740,0.52964738,0.02452403,0.01506805,-0.02525471,0.69494526,0.00000000,0.00000000,0.00000000,0.61448867,0.00000000,0.00000000,-0.00000000,0.64256796,-3.76005149,0.28967682,-9.57588768,10291009.21005011,0.00000000,0.00000000,0.00000000,7348085.28795838,0.00000000,0.00000000,-0.00000000,9135388.76920938,0.68711188,0.80165862,2.17058286,0.96245233,0.03471307,0.25457864,-0.08757982
1.32368219,-0.95469993,0.23325254,0.17937155,0.04435236,0.21284517,0.22331782,-0.07508395,0.22331785,0.28798547,-0.21628998,-0.07508398,-0.21629000,0.52967910,0.03245794,0.02093705,-0.02899940,0.69494526,0.00000000,0.00000000,0.00000000,0.61448867,0.00000000,0.00000000,-0.00000000,0.64256796,-3.73388362,0.28280023,-9.49713039,10291009.21005011,0.00000000,0.00000000,0.00000000,7348085.28795838,0.00000000,0.00000000,-0.00000000,9135388.76920938,0.68747429,0.80143432,2.17061678,0.96244102,0.03477786,0.25463664,-0.08750983
1.32862708,-0.95472509,0.23320244,0.17930214,0.04435539,0.21275364,0.22324347,-0.07507774,0.22324347,0.28788416,-0.21621152,-0.07507776,-0.21621156,0.52969202,0.04356603,0.02947057,-0.03922948,0.69494526,0.00000000,0.00000000,0.00000000,0.61448867,0.00000000,0.00000000,-0.00000000,0.64256796,-3.71002293,0.27589127,-9.41358948,10291009.21005011,0.00000000,0.00000000,0.00000000,7348085.28795838,0.00000000,0.00000000,-0.00000000,9135388.76920938,0.68837262,0.80083663,2.17074516,0.96242464,0.03495427,0.25472923,-0.08735007
1.34346203,-0.95484066,0.23291786,0.17900345,0.04456854,0.21250450,0.22287981,-0.07493408,0.22287982,0.28732251,-0.21584852,-0.07493408,-0.21584856,0.52954556,0.08128533,0.03250533,-0.07591982,0.69494526,0.00000000,0.00000000,0.00000000,0.61448867,0.00000000,0.00000000,-0.00000000,0.64256796,-3.62409782,0.22428696,-9.11763668,10291009.21005011,0.00000000,0.00000000,0.00000000,7348085.28795838,0.00000000,0.00000000,-0.00000000,9135388.76920938,0.68905260,0.80034456,2.17088428,0.96242657,0.03511329,0.25474225,-0.08722701
1.35829697,-0.95499933,0.23242430,0.17866658,0.04509404,0.21234527,0.22233795,-0.07463343,0.22233797,0.28644278,-0.21539719,-0.07463341,-0.21539721,0.52906436,0.10312334,0.03169460,-0.10832801,0.69494526,0.00000000,0.00000000,0.00000000,0.61448867,0.00000000,0.00000000,-0.00000000,0.64256796,-3.64085340,0.12149296,-9.09863091,10291009.21005011,0.00000000,0.00000000,0.00000000,7348085.28795838,0.00000000,0.00000000,-0.00000000,9135388.76920938,0.69019733,0.79943871,2.17119991,0.96246120,0.03547022,0.25465129,-0.08696558
1.36324212,-0.95506436,0.23221521,0.17853938,0.04529680,0.21225987,0.22210541,-0.07452036,0.22210542,0.28607754,-0.21521488,-0.07452035,-0.21521490,0.52885419,0.10683233,0.03647039,-0.11696246,0.69494526,0.00000000,0.00000000,0.00000000,0.61448867,0.00000000,0.00000000,-0.00000000,0.64256796,-3.66474032,0.08783232,-9.06045055,10291009.21005011,0.00000000,0.00000000,0.00000000,7348085.28795838,0.00000000,0.00000000,-0.00000000,9135388.76920938,0.69046033,0.79921673,2.17128689,0.96247488,0.03557410,0.25461140,-0.08688851
1.36818702,-0.95513052,0.23199584,0.17841457,0.04551766,0.21218465,0.22186618,-0.07439933,0.22186618,0.28569835,-0.21502983,-0.07439932,-0.21502981,0.52862632,0.11056163,0.03545905,-0.12128415,0.69494526,0.00000000,0.00000000,0.00000000,0.61448867,0.00000000,0.00000000,-0.00000000,0.64256796,-3.68382907,0.05183288,-8.99123478,10291009.21005011,0.00000000,0.00000000,0.00000000,7348085.28795838,0.00000000,0.00000000,-0.00000000,9135388.76920938,0.69083520,0.79889128,2.17142010,0.96249791,0.03573870,0.25454362,-0.08676445
1.37313217,-0.95519847,0.23176280,0.17829321,0.04575374,0.21211279,0.22161846,-0.07427280,0.22161848,0.28530754,-0.21484459,-0.07427279,-0.21484459,0.52837652,0.11586113,0.03656711,-0.12722856,0.69494526,0.00000000,0.00000000,0.00000000,0.61448867,0.00000000,0.00000000,-0.00000000,0.64256796,-3.70758390,0.03009310,-8.90528011,10291009.21005011,0.00000000,0.00000000,0.00000000,7348085.28795838,0.00000000,0.00000000,-0.00000000,9135388.76920938,0.69119129,0.79857220,2.17155655,0.96252338,0.03591414,0.25446855,-0.08662946
1.37807707,-0.95526749,0.23151404,0.17818214,0.04600318,0.21204256,0.22135947,-0.07414432,0.22135947,0.28490078,-0.21466153,-0.07414432,-0.21466153,0.52810235,0.11428699,0.03708018,-0.13372599,0.69494526,0.00000000,0.00000000,0.00000000,0.61448867,0.00000000,0.00000000,-0.00000000,0.64256796,-3.74337506,0.01539736,-8.82409668,10291009.21005011,0.00000000,0.00000000,0.00000000,7348085.28795838,0.00000000,0.00000000,-0.00000000,9135388.76920938,0.69158287,0.79820995,2.17171766,0.96255519,0.03613008,0.25437550,-0.08645941
1.38302222,-0.95533442,0.23125759,0.17808615,0.04627512,0.21199846,0.22110566,-0.07400862,0.22110566,0.28449956,-0.21449197,-0.07400865,-0.21449196,0.52780529,0.11858414,0.03028925,-0.13480462,0.69494526,0.00000000,0.00000000,0.00000000,0.61448867,0.00000000,0.00000000,-0.00000000,0.64256796,-3.77450013,0.00553459,-8.77395916,10291009.21005011,0.00000000,0.00000000,0.00000000,7348085.28795838,0.00000000,0.00000000,-0.00000000,9135388.76920938,0.69196777,0.79784204,2.17188718,0.96259003,0.03636726,0.25427482,-0.08626803
1.38796711,-0.95540172,0.23099220,0.17799573,0.04655859,0.21196038,0.22084731,-0.07387008,0.22084731,0.28409308,-0.21433200,-0.07387011,-0.21433198,0.52749007,0.11698564,0.03395662,-0.13967057,0.69494526,0.00000000,0.00000000,0.00000000,0.61448867,0.00000000,0.00000000,-0.00000000,0.64256796,-3.76972795,-0.01112135,-8.76681614,10291009.21005011,0.00000000,0.00000000,0.00000000,7348085.28795838,0.00000000,0.00000000,-0.00000000,9135388.76920938,0.69228402,0.79753079,2.17203446,0.96262111,0.03658070,0.25418609,-0.08609223
1.39291201,-0.95547116,0.23071244,0.17790587,0.04686292,0.21193035,0.22058038,-0.07372205,0.22058038,0.28367216,-0.21416772,-0.07372205,-0.21416779,0.52715284,0.12229866,0.03190860,-0.14454276,0.69494526,0.00000000,0.00000000,0.00000000,0.61448867,0.00000000,0.00000000,-0.00000000,0.64256796,-3.73857641,-0.03944639,-8.77639961,10291009.21005011,0.00000000,0.00000000,0.00000000,7348085.28795838,0.00000000,0.00000000,-0.00000000,9135388.76920938,0.69262750,0.79718340,2.17220225,0.96265719,0.03683135,0.25408440,-0.08588197
1.41021966,-0.95571584,0.22968470,0.17760521,0.04804735,0.21192055,0.21962728,-0.07315180,0.21962726,0.28214615,-0.21361532,-0.07315180,-0.21361532,0.52587056,0.12764968,0.02776016,-0.15102817,0.69494526,0.00000000,0.00000000,0.00000000,0.61448867,0.00000000,0.00000000,-0.00000000,0.64256796,-3.78873706,-0.12827200,-8.74303436,10291009.21005011,0.00000000,0.00000000,0.00000000,7348085.28795838,0.00000000,0.00000000,-0.00000000,9135388.76920938,0.69377660,0.79594691,2.17281868,0.96279261,0.03781171,0.25371466,-0.08502669
1.42505460,-0.95592189,0.22877501,0.17737618,0.04912265,0.21197059,0.21881042,-0.07264624,0.21881039,0.28083630,-0.21317662,-0.07264621,-0.21317658,0.52471350,0.13349489,0.02676914,-0.15100766,0.69494526,0.00000000,0.00000000,0.00000000,0.61448867,0.00000000,0.00000000,-0.00000000,0.64256796,-3.78165817,-0.18785417,-8.77891541,10291009.21005011,0.00000000,0.00000000,0.00000000,7348085.28795838,0.00000000,0.00000000,-0.00000000,9135388.76920938,0.69475460,0.79480024,2.17340120,0.96292000,0.03881028,0.25338328,-0.08411743
1.43988955,-0.95611769,0.22788899,0.17714883,0.05023694,0.21210605,0.21802792,-0.07212008,0.21802794,0.27954879,-0.21276652,-0.07212007,-0.21276652,0.52357134,0.11759196,0.02186828,-0.14403787,0.69494526,0.00000000,0.00000000,0.00000000,0.61448867,0.00000000,0.00000000,-0.00000000,0.64256796,-3.83643222,-0.29106393,-8.84582138,10291009.21005011,0.00000000,0.00000000,0.00000000,7348085.28795838,0.00000000,0.00000000,-0.00000000,9135388.76920938,0.69563568,0.79369141,2.17396225,0.96303896,0.03982444,0.25308601,-0.08317114
1.44483470,-0.95617950,0.22759885,0.17708586,0.05059811,0.21215298,0.21777731,-0.07195408,0.21777731,0.27914142,-0.21264410,-0.07195405,-0.21264406,0.52319701,0.11601373,0.02027387,-0.14079023,0.69494526,0.00000000,0.00000000,0.00000000,0.61448867,0.00000000,0.00000000,-0.00000000,0.64256796,-3.88187385,-0.31539676,-8.85537720,10291009.21005011,0.00000000,0.00000000,0.00000000,7348085.28795838,0.00000000,0.00000000,-0.00000000,9135388.76920938,0.69584187,0.79342183,2.17409762,0.96306701,0.04007510,0.25301707,-0.08293543
1.44977959,-0.95623940,0.22731714,0.17702124,0.05095730,0.21220822,0.21753529,-0.07178779,0.21753524,0.27874459,-0.21252644,-0.07178779,-0.21252642,0.52283279,0.11493770,0.02078652,-0.13646239,0.69494526,0.00000000,0.00000000,0.00000000,0.61448867,0.00000000,0.00000000,-0.00000000,0.64256796,-3.90573430,-0.33951345,-8.83389759,10291009.21005011,0.00000000,0.00000000,0.00000000,7348085.28795838,0.00000000,0.00000000,-0.00000000,9135388.76920938,0.69608282,0.79310209,2.17425748,0.96309979,0.04037356,0.25293680,-0.08265435
1.45472449,-0.95629334,0.22705567,0.17695649,0.05133401,0.21231275,0.21732378,-0.07160879,0.21732378,0.27838053,-0.21242689,-0.07160878,-0.21242691,0.52247914,0.12340550,0.01929208,-0.12995042,0.69494526,0.00000000,0.00000000,0.00000000,0.61448867,0.00000000,0.00000000,-0.00000000,0.64256796,-3.91048026,-0.36820504,-8.82436848,10291009.21005011,0.00000000,0.00000000,0.00000000,7348085.28795838,0.00000000,0.00000000,-0.00000000,9135388.76920938,0.69635724,0.79273182,2.17444154,0.96313711,0.04072012,0.25284563,-0.08232777
1.45966964,-0.95634681,0.22680013,0.17688654,0.05170712,0.21241782,0.21711292,-0.07143011,0.21711292,0.27801340,-0.21232736,-0.07143013,-0.21232740,0.52213574,0.11859662,0.02344774,-0.12562378,0.69494526,0.00000000,0.00000000,0.00000000,0.61448867,0.00000000,0.00000000,-0.00000000,0.64256796,-3.92718291,-0.41133916,-8.87692547,10291009.21005011,0.00000000,0.00000000,0.00000000,7348085.28795838,0.00000000,0.00000000,-0.00000000,9135388.76920938,0.69666750,0.79230554,2.17465183,0.96317923,0.04111935,0.25274266,-0.08195190
1.47450459,-0.95649612,0.22611745,0.17666286,0.05269141,0.21266784,0.21652576,-0.07095262,0.21652575,0.27699416,-0.21203127,-0.07095261,-0.21203127,0.52126224,0.08823926,0.03364085,-0.10079466,0.69494526,0.00000000,0.00000000,0.00000000,0.61448867,0.00000000,0.00000000,-0.00000000,0.64256796,-4.02254629,-0.54122543,-9.07753468,10291009.21005011,0.00000000,0.00000000,0.00000000,7348085.28795838,0.00000000,0.00000000,-0.00000000,9135388.76920938,0.69748052,0.79115269,2.17520974,0.96328956,0.04219181,0.25246926,-0.08094661
1.49181198,-0.95664179,0.22552489,0.17636220,0.05358567,0.21288949,0.21598852,-0.07048984,0.21598848,0.27603786,-0.21170778,-0.07048984,-0.21170783,0.52058015,0.06426185,0.04126855,-0.06835743,0.69494526,0.00000000,0.00000000,0.00000000,0.61448867,0.00000000,0.00000000,-0.00000000,0.64256796,-3.99645805,-0.66503751,-8.94875813,10291009.21005011,0.00000000,0.00000000,0.00000000,7348085.28795838,0.00000000,0.00000000,-0.00000000,9135388.76920938,0.69818103,0.79012647,2.17568847,0.96338792,0.04312544,0.25221532,-0.08007084
1.49675713,-0.95667839,0.22539090,0.17627144,0.05379355,0.21293680,0.21585959,-0.07037620,0.21585960,0.27580325,-0.21161919,-0.07037621,-0.21161925,0.52044478,0.05309297,0.04272756,-0.06244070,0.69494526,0.00000000,0.00000000,0.00000000,0.61448867,0.00000000,0.00000000,-0.00000000,0.64256796,-4.00112486,-0.71044248,-8.92730236,10291009.21005011,0.00000000,0.00000000,0.00000000,7348085.28795838,0.00000000,0.00000000,-0.00000000,9135388.76920938,0.69830781,0.78993889,2.17577376,0.96340648,0.04329216,0.25216585,-0.07991327
1.50170203,-0.95671201,0.22527117,0.17618616,0.05397661,0.21297417,0.21574215,-0.07027538,0.21574213,0.27559164,-0.21153759,-0.07027536,-0.21153759,0.52033195,0.04511099,0.04316664,-0.05272041,0.69494526,0.00000000,0.00000000,0.00000000,0.61448867,0.00000000,0.00000000,-0.00000000,0.64256796,-4.01544094,-0.74639177,-8.90583992,10291009.21005011,0.00000000,0.00000000,0.00000000,7348085.28795838,0.00000000,0.00000000,-0.00000000,9135388.76920938,0.69852708,0.78961436,2.17591966,0.96343936,0.04357610,0.25207682,-0.07964300
1.50664718,-0.95674306,0.22516458,0.17610148,0.05414723,0.21301365,0.21563821,-0.07017903,0.21563819,0.27539956,-0.21146057,-0.07017907,-0.21146060,0.52023776,0.04032412,0.04258861,-0.04786896,0.69494526,0.00000000,0.00000000,0.00000000,0.61448867,0.00000000,0.00000000,-0.00000000,0.64256796,-4.01538801,-0.76787585,-8.88914299,10291009.21005011,0.00000000,0.00000000,0.00000000,7348085.28795838,0.00000000,0.00000000,-0.00000000,9135388.76920938,0.69874283,0.78929597,2.17606071,0.96347286,0.04384768,0.25198423,-0.07938117
1.51159207,-0.95677149,0.22507372,0.17601511,0.05430249,0.21305340,0.21554702,-0.07008803,0.21554704,0.27522725,-0.21138985,-0.07008806,-0.21138980,0.52016552,0.03604707,0.04517065,-0.04083886,0.69494526,0.00000000,0.00000000,0.00000000,0.61448867,0.00000000,0.00000000,-0.00000000,0.64256796,-3.99391294,-0.78196967,-8.90588188,10291009.21005011,0.00000000,0.00000000,0.00000000,7348085.28795838,0.00000000,0.00000000,-0.00000000,9135388.76920938,0.69894407,0.78900102,2.17618946,0.96350536,0.04409156,0.25189264,-0.07914201
1.51653697,-0.95680159,0.22499336,0.17591578,0.05442748,0.21306182,0.21545219,-0.07000819,0.21545219,0.27505519,-0.21130892,-0.07000819,-0.21130892,0.52012309,0.02590148,0.05400274,-0.03109675,0.69494526,0.00000000,0.00000000,0.00000000,0.61448867,0.00000000,0.00000000,-0.00000000,0.64256796,-3.97013211,-0.79603118,-8.93695545,10291009.21005011,0.00000000,0.00000000,0.00000000,7348085.28795838,0.00000000,0.00000000,-0.00000000,9135388.76920938,0.69915505,0.78869526,2.17632086,0.96354093,0.04433502,0.25179039,-0.07889789
1.52148212,-0.95682979,0.22492935,0.17581023,0.05453743,0.21306978,0.21537144,-0.06993116,0.21537143,0.27490063,-0.21122478,-0.06993116,-0.21122480,0.52010685,0.02004390,0.05709668,-0.02839933,0.69494526,0.00000000,0.00000000,0.00000000,0.61448867,0.00000000,0.00000000,-0.00000000,0.64256796,-3.95104337,-0.81014997,-8.92743015,10291009.21005011,0.00000000,0.00000000,0.00000000,7348085.28795838,0.00000000,0.00000000,-0.00000000,9135388.76920938,0.69934497,0.78842435,2.17643538,0.96357447,0.04454129,0.25169219,-0.07868519
1.52642702,-0.95685792,0.22487704,0.17569607,0.05462752,0.21306348,0.21529372,-0.06986043,0.21529372,0.27475182,-0.21113467,-0.06986044,-0.21113465,0.52011551,0.01258516,0.06017227,-0.02191808,0.69494526,0.00000000,0.00000000,0.00000000,0.61448867,0.00000000,0.00000000,-0.00000000,0.64256796,-3.92241073,-0.82655507,-8.88210106,10291009.21005011,0.00000000,0.00000000,0.00000000,7348085.28795838,0.00000000,0.00000000,-0.00000000,9135388.76920938,0.69952902,0.78816704,2.17654235,0.96360853,0.04472737,0.25159076,-0.07848666
1.54126222,-0.95692742,0.22479817,0.17537107,0.05477870,0.21300345,0.21512080,-0.06970396,0.21512077,0.27441033,-0.21088879,-0.06970396,-0.21088879,0.52026463,-0.01184434,0.05780713,0.00019884,0.69494526,0.00000000,0.00000000,0.00000000,0.61448867,0.00000000,0.00000000,-0.00000000,0.64256796,-3.80074692,-0.94698924,-8.85603237,10291009.21005011,0.00000000,0.00000000,0.00000000,7348085.28795838,0.00000000,0.00000000,-0.00000000,9135388.76920938,0.70013754,0.78736931,2.17685830,0.96373332,0.04521475,0.25120485,-0.07790919
1.55609716,-0.95698059,0.22484788,0.17506027,0.05463952,0.21274844,0.21501116,-0.06968723,0.21501118,0.27422703,-0.21065860,-0.06968724,-0.21065860,0.52066524,-0.05227091,0.06684354,0.02987435,0.69494526,0.00000000,0.00000000,0.00000000,0.61448867,0.00000000,0.00000000,-0.00000000,0.64256796,-3.67428470,-0.92418069,-8.83221340,10291009.21005011,0.00000000,0.00000000,0.00000000,7348085.28795838,0.00000000,0.00000000,-0.00000000,9135388.76920938,0.70064574,0.78679406,2.17705607,0.96385036,0.04540957,0.25081975,-0.07758802
1.57834971,-0.95694995,0.22527963,0.17491376,0.05386165,0.21226627,0.21521496,-0.07000700,0.21521498,0.27463177,-0.21063922,-0.07000700,-0.21063922,0.52172405,-0.10689187,0.04574583,0.08433122,0.69494526,0.00000000,0.00000000,0.00000000,0.61448867,0.00000000,0.00000000,-0.00000000,0.64256796,-3.54784870,-0.79397321,-8.84410572,10291009.21005011,0.00000000,0.00000000,0.00000000,7348085.28795838,0.00000000,0.00000000,-0.00000000,9135388.76920938,0.70125426,0.78626604,2.17717611,0.96399333,0.04530477,0.25032077,-0.07748447
1.58329460,-0.95692909,0.22544107,0.17489788,0.05360763,0.21215023,0.21532213,-0.07011638,0.21532211,0.27482754,-0.21067410,-0.07011638,-0.21067410,0.52204830,-0.11118184,0.04937843,0.09352870,0.69494526,0.00000000,0.00000000,0.00000000,0.61448867,0.00000000,0.00000000,-0.00000000,0.64256796,-3.48342466,-0.76943016,-8.92768478,10291009.21005011,0.00000000,0.00000000,0.00000000,7348085.28795838,0.00000000,0.00000000,-0.00000000,9135388.76920938,0.70142415,0.78615548,2.17718366,0.96403056,0.04520635,0.25018556,-0.07751550
1.58823950,-0.95690525,0.22562069,0.17487918,0.05333788,0.21203624,0.21544329,-0.07023056,0.21544329,0.27504089,-0.21071113,-0.07023058,-0.21071113,0.52239928,-0.11862743,0.04982411,0.10108573,0.69494526,0.00000000,0.00000000,0.00000000,0.61448867,0.00000000,0.00000000,-0.00000000,0.64256796,-3.42854476,-0.74260074,-8.95156860,10291009.21005011,0.00000000,0.00000000,0.00000000,7348085.28795838,0.00000000,0.00000000,-0.00000000,9135388.76920938,0.70158248,0.78606731,2.17718062,0.96406314,0.04508961,0.25006504,-0.07756711
1.59318465,-0.95687640,0.22582552,0.17486021,0.05304991,0.21193184,0.21558699,-0.07035074,0.21558699,0.27528620,-0.21075887,-0.07035077,-0.21075884,0.52278234,-0.12291586,0.04924595,0.11567784,0.69494526,0.00000000,0.00000000,0.00000000,0.61448867,0.00000000,0.00000000,-0.00000000,0.64256796,-3.39983249,-0.71605450,-8.93722916,10291009.21005011,0.00000000,0.00000000,0.00000000,7348085.28795838,0.00000000,0.00000000,-0.00000000,9135388.76920938,0.70175426,0.78598742,2.17716683,0.96409580,0.04493775,0.24994182,-0.07764651
1.60801959,-0.95676494,0.22654416,0.17484258,0.05204492,0.21159693,0.21611111,-0.07078537,0.21611109,0.27617479,-0.21095788,-0.07078539,-0.21095788,0.52408401,-0.15421073,0.04155005,0.14046810,0.69494526,0.00000000,0.00000000,0.00000000,0.61448867,0.00000000,0.00000000,-0.00000000,0.64256796,-3.25430822,-0.66679043,-9.09962559,10291009.21005011,0.00000000,0.00000000,0.00000000,7348085.28795838,0.00000000,0.00000000,-0.00000000,9135388.76920938,0.70243528,0.78581172,2.17701899,0.96419772,0.04412618,0.24953132,-0.07816500
1.62285454,-0.95664471,0.22739956,0.17474407,0.05084137,0.21115256,0.21670992,-0.07128636,0.21670992,0.27719577,-0.21112380,-0.07128634,-0.21112380,0.52564608,-0.16120359,0.04935770,0.15778426,0.69494526,0.00000000,0.00000000,0.00000000,0.61448867,0.00000000,0.00000000,-0.00000000,0.64256796,-3.11827517,-0.54364717,-9.14495087,10291009.21005011,0.00000000,0.00000000,0.00000000,7348085.28795838,0.00000000,0.00000000,-0.00000000,9135388.76920938,0.70306832,0.78579889,2.17678288,0.96425880,0.04317846,0.24924436,-0.07885328
1.62779969,-0.95660299,0.22771057,0.17468953,0.05041992,0.21100235,0.21692437,-0.07145496,0.21692437,0.27755150,-0.21116632,-0.07145497,-0.21116634,0.52621243,-0.16015133,0.04778776,0.16373634,0.69494526,0.00000000,0.00000000,0.00000000,0.61448867,0.00000000,0.00000000,-0.00000000,0.64256796,-3.05623698,-0.50480962,-9.13540173,10291009.21005011,0.00000000,0.00000000,0.00000000,7348085.28795838,0.00000000,0.00000000,-0.00000000,9135388.76920938,0.70315033,0.78580452,2.17674756,0.96426490,0.04304887,0.24921211,-0.07895141
1.64263463,-0.95646012,0.22872315,0.17453852,0.04905283,0.21053491,0.21763103,-0.07201451,0.21763101,0.27872152,-0.21131856,-0.07201449,-0.21131853,0.52803472,-0.16757376,0.04034053,0.18101723,0.69494526,0.00000000,0.00000000,0.00000000,0.61448867,0.00000000,0.00000000,-0.00000000,0.64256796,-2.89162421,-0.34556183,-9.22369194,10291009.21005011,0.00000000,0.00000000,0.00000000,7348085.28795838,0.00000000,0.00000000,-0.00000000,9135388.76920938,0.70406601,0.78593593,2.17631213,0.96431253,0.04158557,0.24890811,-0.08010452
1.64757953,-0.95640457,0.22909586,0.17448452,0.04858582,0.21041026,0.21790396,-0.07220256,0.21790396,0.27915960,-0.21138616,-0.07220257,-0.21138618,0.52868270,-0.16441933,0.04089492,0.18860416,0.69494526,0.00000000,0.00000000,0.00000000,0.61448867,0.00000000,0.00000000,-0.00000000,0.64256796,-2.81765556,-0.28989276,-9.24994659,10291009.21005011,0.00000000,0.00000000,0.00000000,7348085.28795838,0.00000000,0.00000000,-0.00000000,9135388.76920938,0.70416308,0.78595477,2.17626356,0.96431575,0.04143366,0.24888124,-0.08022787
1.65252468,-0.95634490,0.22947900,0.17443642,0.04812234,0.21030744,0.21819321,-0.07238962,0.21819320,0.27961608,-0.21146424,-0.07238962,-0.21146425,0.52933774,-0.16175836,0.03829134,0.19239783,0.69494526,0.00000000,0.00000000,0.00000000,0.61448867,0.00000000,0.00000000,-0.00000000,0.64256796,-2.74612594,-0.26288298,-9.27145767,10291009.21005011,0.00000000,0.00000000,0.00000000,7348085.28795838,0.00000000,0.00000000,-0.00000000,9135388.76920938,0.70446501,0.78601671,2.17611158,0.96432397,0.04096968,0.24880336,-0.08060798
1.65746958,-0.95627695,0.22988294,0.17440866,0.04764309,0.21022272,0.21850607,-0.07258995,0.21850605,0.28010489,-0.21156399,-0.07258996,-0.21156403,0.53001419,-0.16861182,0.02769815,0.20209340,0.69494526,0.00000000,0.00000000,0.00000000,0.61448867,0.00000000,0.00000000,-0.00000000,0.64256796,-2.71272087,-0.25298548,-9.25953102,10291009.21005011,0.00000000,0.00000000,0.00000000,7348085.28795838,0.00000000,0.00000000,-0.00000000,9135388.76920938,0.70476415,0.78608168,2.17596067,0.96432955,0.04052394,0.24873447,-0.08097838
1.67230452,-0.95602512,0.23119131,0.17445239,0.04618325,0.21014184,0.21961937,-0.07323446,0.21961937,0.28183300,-0.21204890,-0.07323445,-0.21204888,0.53209188,-0.16802681,0.00928725,0.22315731,0.69494526,0.00000000,0.00000000,0.00000000,0.61448867,0.00000000,0.00000000,-0.00000000,0.64256796,-2.68888664,-0.17397489,-9.24753571,10291009.21005011,0.00000000,0.00000000,0.00000000,7348085.28795838,0.00000000,0.00000000,-0.00000000,9135388.76920938,0.70608371,0.78638184,2.17530928,0.96432584,0.03873335,0.24852250,-0.08253461
1.68713972,-0.95572901,0.23262413,0.17453834,0.04477102,0.21031851,0.22092541,-0.07385710,0.22092541,0.28378987,-0.21267984,-0.07385709,-0.21267982,0.53425825,-0.15689917,0.00413632,0.23508166,0.69494526,0.00000000,0.00000000,0.00000000,0.61448867,0.00000000,0.00000000,-0.00000000,0.64256796,-2.64355111,-0.14008610,-9.34780598,10291009.21005011,0.00000000,0.00000000,0.00000000,7348085.28795838,0.00000000,0.00000000,-0.00000000,9135388.76920938,0.70736212,0.78666328,2.17471316,0.96428565,0.03724646,0.24843741,-0.08393292
1.70939201,-0.95522845,0.23488079,0.17479177,0.04263208,0.21079293,0.22308115,-0.07484584,0.22308115,0.28699400,-0.21381191,-0.07484584,-0.21381189,0.53760402,-0.15893536,-0.01113725,0.23774113,0.69494526,0.00000000,0.00000000,0.00000000,0.61448867,0.00000000,0.00000000,-0.00000000,0.64256796,-2.51706195,-0.16501158,-9.35268021,10291009.21005011,0.00000000,0.00000000,0.00000000,7348085.28795838,0.00000000,0.00000000,-0.00000000,9135388.76920938,0.70893915,0.78697999,2.17402483,0.96420139,0.03567942,0.24844952,-0.08553070
1.71433716,-0.95511669,0.23536831,0.17486110,0.04215970,0.21089544,0.22355561,-0.07507328,0.22355561,0.28770577,-0.21407083,-0.07507329,-0.21407083,0.53833245,-0.16156120,-0.01273939,0.23285899,0.69494526,0.00000000,0.00000000,0.00000000,0.61448867,0.00000000,0.00000000,-0.00000000,0.64256796,-2.46934056,-0.17405628,-9.32406807,10291009.21005011,0.00000000,0.00000000,0.00000000,7348085.28795838,0.00000000,0.00000000,-0.00000000,9135388.76920938,0.70944350,0.78707354,2.17381556,0.96416925,0.03523153,0.24847216,-0.08601152
1.72422721,-0.95488822,0.23628244,0.17508556,0.04128143,0.21115697,0.22450542,-0.07552785,0.22450539,0.28913941,-0.21464158,-0.07552786,-0.21464161,0.53966571,-0.14490909,-0.04043183,0.21226133,0.69494526,0.00000000,0.00000000,0.00000000,0.61448867,0.00000000,0.00000000,-0.00000000,0.64256796,-2.50979829,-0.19358504,-9.07575226,10291009.21005011,0.00000000,0.00000000,0.00000000,7348085.28795838,0.00000000,0.00000000,-0.00000000,9135388.76920938,0.71113498,0.78736115,2.17315190,0.96405093,0.03388915,0.24859282,-0.08751534
1.72917211,-0.95477778,0.23670252,0.17521296,0.04088754,0.21130604,0.22496025,-0.07574126,0.22496023,0.28982697,-0.21493906,-0.07574127,-0.21493909,0.54026614,-0.13902447,-0.04299435,0.19928265,0.69494526,0.00000000,0.00000000,0.00000000,0.61448867,0.00000000,0.00000000,-0.00000000,0.64256796,-2.51695633,-0.16263467,-9.11630440,10291009.21005011,0.00000000,0.00000000,0.00000000,7348085.28795838,0.00000000,0.00000000,-0.00000000,9135388.76920938,0.71127675,0.78738353,2.17309893,0.96404052,0.03378672,0.24860543,-0.08763376
1.74400705,-0.95448333,0.23777333,0.17559558,0.03989590,0.21174605,0.22617001,-0.07630289,0.22617003,0.29166060,-0.21576916,-0.07630287,-0.21576913,0.54178973,-0.10647327,-0.05420599,0.15552415,0.69494526,0.00000000,0.00000000,0.00000000,0.61448867,0.00000000,0.00000000,-0.00000000,0.64256796,-2.58872414,-0.12518485,-9.32156849,10291009.21005011,0.00000000,0.00000000,0.00000000,7348085.28795838,0.00000000,0.00000000,-0.00000000,9135388.76920938,0.71333618,0.78768189,2.17237362,0.96388529,0.03244984,0.24882053,-0.08922167
1.75884199,-0.95423180,0.23860216,0.17601375,0.03911282,0.21214867,0.22716773,-0.07679542,0.22716771,0.29319084,-0.21654147,-0.07679541,-0.21654149,0.54295524,-0.09838674,-0.06357489,0.12520737,0.69494526,0.00000000,0.00000000,0.00000000,0.61448867,0.00000000,0.00000000,-0.00000000,0.64256796,-2.73894143,-0.09574910,-9.43603897,10291009.21005011,0.00000000,0.00000000,0.00000000,7348085.28795838,0.00000000,0.00000000,-0.00000000,9135388.76920938,0.71552207,0.78795371,2.17168233,0.96371852,0.03129576,0.24910328,-0.09063526
1.76378715,-0.95415753,0.23883773,0.17614974,0.03887437,0.21225568,0.22745841,-0.07695213,0.22745841,0.29364814,-0.21677977,-0.07695213,-0.21677980,0.54329306,-0.09307254,-0.06246502,0.11818949,0.69494526,0.00000000,0.00000000,0.00000000,0.61448867,0.00000000,0.00000000,-0.00000000,0.64256796,-2.80336547,-0.07017387,-9.45984840,10291009.21005011,0.00000000,0.00000000,0.00000000,7348085.28795838,0.00000000,0.00000000,-0.00000000,9135388.76920938,0.71612306,0.78802184,2.17150453,0.96367331,0.03101897,0.24918861,-0.09097585
1.78109454,-0.95393240,0.23953974,0.17657693,0.03813520,0.21255911,0.22833363,-0.07744909,0.22833363,0.29503774,-0.21751403,-0.07744912,-0.21751406,0.54432863,-0.08188422,-0.05970809,0.09387623,0.69494526,0.00000000,0.00000000,0.00000000,0.61448867,0.00000000,0.00000000,-0.00000000,0.64256796,-2.95371485,-0.00015406,-9.50505352,10291009.21005011,0.00000000,0.00000000,0.00000000,7348085.28795838,0.00000000,0.00000000,-0.00000000,9135388.76920938,0.71885845,0.78830201,2.17075317,0.96347677,0.02994112,0.24959986,-0.09228190
1.78603969,-0.95387518,0.23971538,0.17669019,0.03793697,0.21262394,0.22855261,-0.07758501,0.22855262,0.29539181,-0.21770334,-0.07758501,-0.21770331,0.54459692,-0.08135415,-0.05812304,0.08954994,0.69494526,0.00000000,0.00000000,0.00000000,0.61448867,0.00000000,0.00000000,-0.00000000,0.64256796,-2.98709369,0.02813139,-9.54797840,10291009.21005011,0.00000000,0.00000000,0.00000000,7348085.28795838,0.00000000,0.00000000,-0.00000000,9135388.76920938,0.71943623,0.78835539,2.17060579,0.96343783,0.02974670,0.24968879,-0.09251045
1.79098459,-0.95382363,0.23987962,0.17679010,0.03772940,0.21265399,0.22874737,-0.07772457,0.22874737,0.29571737,-0.21787274,-0.07772457,-0.21787274,0.54486368,-0.08456879,-0.05026507,0.08469006,0.69494526,0.00000000,0.00000000,0.00000000,0.61448867,0.00000000,0.00000000,-0.00000000,0.64256796,-3.00856853,0.06131786,-9.61717224,10291009.21005011,0.00000000,0.00000000,0.00000000,7348085.28795838,0.00000000,0.00000000,-0.00000000,9135388.76920938,0.72034505,0.78843539,2.17038158,0.96337880,0.02946072,0.24982779,-0.09284089
1.81076468,-0.95365518,0.24048676,0.17705192,0.03688544,0.21261300,0.22940065,-0.07825583,0.22940063,0.29684437,-0.21837073,-0.07825579,-0.21837071,0.54595286,-0.06502137,-0.03586096,0.07612198,0.69494526,0.00000000,0.00000000,0.00000000,0.61448867,0.00000000,0.00000000,-0.00000000,0.64256796,-3.11594176,0.26543558,-9.41397095,10291009.21005011,0.00000000,0.00000000,0.00000000,7348085.28795838,0.00000000,0.00000000,-0.00000000,9135388.76920938,0.72423846,0.78872390,2.16952061,0.96315895,0.02845633,0.25038485,-0.09392818
1.82559963,-0.95351768,0.24102767,0.17718236,0.03627851,0.21269497,0.22996396,-0.07861047,0.22996396,0.29773425,-0.21873940,-0.07861048,-0.21873934,0.54687422,-0.06245706,-0.02953216,0.09292435,0.69494526,0.00000000,0.00000000,0.00000000,0.61448867,0.00000000,0.00000000,-0.00000000,0.64256796,-3.10403800,0.41591838,-9.48546124,10291009.21005011,0.00000000,0.00000000,0.00000000,7348085.28795838,0.00000000,0.00000000,-0.00000000,9135388.76920938,0.72730454,0.78888780,2.16894233,0.96301659,0.02783422,0.25076880,-0.09454798
1.83054452,-0.95345855,0.24126190,0.17722613,0.03606099,0.21277796,0.23021363,-0.07873122,0.23021361,0.29810743,-0.21889440,-0.07873119,-0.21889437,0.54724484,-0.05667485,-0.02948114,0.10917645,0.69494526,0.00000000,0.00000000,0.00000000,0.61448867,0.00000000,0.00000000,-0.00000000,0.64256796,-3.11596847,0.46829790,-9.41139126,10291009.21005011,0.00000000,0.00000000,0.00000000,7348085.28795838,0.00000000,0.00000000,-0.00000000,9135388.76920938,0.72872074,0.78894406,2.16869955,0.96295597,0.02757469,0.25093167,-0.09480897
1.84537972,-0.95320380,0.24219964,0.17746635,0.03531906,0.21330558,0.23127530,-0.07915225,0.23127531,0.29963341,-0.21959539,-0.07915229,-0.21959542,0.54860144,-0.07057861,-0.03596290,0.16540761,0.69494526,0.00000000,0.00000000,0.00000000,0.61448867,0.00000000,0.00000000,-0.00000000,0.64256796,-3.25677371,0.57899004,-9.39210129,10291009.21005011,0.00000000,0.00000000,0.00000000,7348085.28795838,0.00000000,0.00000000,-0.00000000,9135388.76920938,0.73157575,0.78901909,2.16824778,0.96283630,0.02707715,0.25123781,-0.09535543
1.85032462,-0.95309532,0.24260433,0.17755596,0.03501950,0.21355081,0.23173544,-0.07931531,0.23173544,0.30028607,-0.21989055,-0.07931532,-0.21989056,0.54917382,-0.07542240,-0.03286657,0.18380246,0.69494526,0.00000000,0.00000000,0.00000000,0.61448867,0.00000000,0.00000000,-0.00000000,0.64256796,-3.27347612,0.60984004,-9.40161133,10291009.21005011,0.00000000,0.00000000,0.00000000,7348085.28795838,0.00000000,0.00000000,-0.00000000,9135388.76920938,0.73267691,0.78903413,2.16808508,0.96278986,0.02689173,0.25134778,-0.09558670
1.85526951,-0.95297396,0.24305606,0.17764997,0.03471135,0.21385490,0.23225755,-0.07947857,0.23225759,0.30101550,-0.22021937,-0.07947857,-0.22021937,0.54979988,-0.07335164,-0.03390679,0.20274739,0.69494526,0.00000000,0.00000000,0.00000000,0.61448867,0.00000000,0.00000000,-0.00000000,0.64256796,-3.26154590,0.61951184,-9.32759571,10291009.21005011,0.00000000,0.00000000,0.00000000,7348085.28795838,0.00000000,0.00000000,-0.00000000,9135388.76920938,0.73368186,0.78904105,2.16794147,0.96274694,0.02672521,0.25144389,-0.09581260
1.86021467,-0.95283961,0.24354652,0.17775819,0.03440651,0.21422720,0.23283973,-0.07963904,0.23283972,0.30181641,-0.22058776,-0.07963903,-0.22058774,0.55046157,-0.06965435,-0.04071465,0.21951309,0.69494526,0.00000000,0.00000000,0.00000000,0.61448867,0.00000000,0.00000000,-0.00000000,0.64256796,-3.25194883,0.61006099,-9.19390583,10291009.21005011,0.00000000,0.00000000,0.00000000,7348085.28795838,0.00000000,0.00000000,-0.00000000,9135388.76920938,0.73484310,0.78904090,2.16778081,0.96269644,0.02653571,0.25154970,-0.09609457
1.87752206,-0.95227247,0.24554789,0.17824452,0.03335090,0.21602616,0.23532096,-0.08019298,0.23532097,0.30516291,-0.22220793,-0.08019298,-0.22220793,0.55304162,-0.06657586,-0.04859694,0.26766135,0.69494526,0.00000000,0.00000000,0.00000000,0.61448867,0.00000000,0.00000000,-0.00000000,0.64256796,-3.28050208,0.52860880,-9.21544552,10291009.21005011,0.00000000,0.00000000,0.00000000,7348085.28795838,0.00000000,0.00000000,-0.00000000,9135388.76920938,0.73853994,0.78898361,2.16730194,0.96252481,0.02594559,0.25185622,-0.09716613
1.89235700,-0.95173573,0.24747561,0.17862950,0.03234840,0.21775633,0.23770708,-0.08069242,0.23770710,0.30835706,-0.22370790,-0.08069243,-0.22370790,0.55558066,-0.07937722,-0.04400478,0.28820917,0.69494526,0.00000000,0.00000000,0.00000000,0.61448867,0.00000000,0.00000000,-0.00000000,0.64256796,-3.32114482,0.40647367,-9.20122051,10291009.21005011,0.00000000,0.00000000,0.00000000,7348085.28795838,0.00000000,0.00000000,-0.00000000,9135388.76920938,0.74207478,0.78885209,2.16688170,0.96233795,0.02538521,0.25212410,-0.09846164
1.90719220,-0.95120353,0.24939479,0.17896511,0.03139415,0.21953930,0.24012435,-0.08114963,0.24012433,0.31157397,-0.22518616,-0.08114963,-0.22518620,0.55814401,-0.06505101,-0.03911624,0.26985433,0.69494526,0.00000000,0.00000000,0.00000000,0.61448867,0.00000000,0.00000000,-0.00000000,0.64256796,-3.27334356,0.34253022,-9.03179073,10291009.21005011,0.00000000,0.00000000,0.00000000,7348085.28795838,0.00000000,0.00000000,-0.00000000,9135388.76920938,0.74606927,0.78862595,2.16643789,0.96209758,0.02474275,0.25242123,-0.10019762
1.91213710,-0.95104110,0.24999228,0.17904170,0.03112530,0.22011972,0.24088252,-0.08126627,0.24088252,0.31256888,-0.22563361,-0.08126627,-0.22563359,0.55894901,-0.05444248,-0.03374158,0.25691111,0.69494526,0.00000000,0.00000000,0.00000000,0.61448867,0.00000000,0.00000000,-0.00000000,0.64256796,-3.27098417,0.31153214,-9.00794983,10291009.21005011,0.00000000,0.00000000,0.00000000,7348085.28795838,0.00000000,0.00000000,-0.00000000,9135388.76920938,0.74710927,0.78855563,2.16632631,0.96203112,0.02457502,0.25249776,-0.10068304
1.91708199,-0.95088780,0.25055942,0.17910573,0.03088065,0.22068152,0.24160319,-0.08136778,0.24160316,0.31350475,-0.22604995,-0.08136780,-0.22604998,0.55971858,-0.04962131,-0.03473621,0.24176864,0.69494526,0.00000000,0.00000000,0.00000000,0.61448867,0.00000000,0.00000000,-0.00000000,0.64256796,-3.26143980,0.27583364,-8.98172665,10291009.21005011,0.00000000,0.00000000,0.00000000,7348085.28795838,0.00000000,0.00000000,-0.00000000,9135388.76920938,0.74834703,0.78846665,2.16619521,0.96195097,0.02437678,0.25258712,-0.10127117
1.92449959,-0.95067972,0.25133523,0.17917889,0.03055467,0.22145767,0.24259168,-0.08149773,0.24259166,0.31478288,-0.22661419,-0.08149775,-0.22661421,0.56078358,-0.04478134,-0.03099011,0.21419965,0.69494526,0.00000000,0.00000000,0.00000000,0.61448867,0.00000000,0.00000000,-0.00000000,0.64256796,-3.21621037,0.23813449,-8.94359970,10291009.21005011,0.00000000,0.00000000,0.00000000,7348085.28795838,0.00000000,0.00000000,-0.00000000,9135388.76920938,0.74962007,0.78836967,2.16606204,0.96186801,0.02417554,0.25267627,-0.10188317
1.92944449,-0.95055962,0.25179076,0.17920716,0.03037319,0.22192032,0.24317426,-0.08156361,0.24317426,0.31553150,-0.22693711,-0.08156362,-0.22693714,0.56141795,-0.03519388,-0.02825127,0.19258562,0.69494526,0.00000000,0.00000000,0.00000000,0.61448867,0.00000000,0.00000000,-0.00000000,0.64256796,-3.17803311,0.23614925,-8.90303898,10291009.21005011,0.00000000,0.00000000,0.00000000,7348085.28795838,0.00000000,0.00000000,-0.00000000,9135388.76920938,0.75095287,0.78826274,2.16592427,0.96178140,0.02397010,0.25276596,-0.10252487
